t,dt,ax,ay,az,gx,gy,gz
669.1549,0.00006,-0.35406,0.18088,-9.76129,-0.107917,-0.001466,0.006395
669.2134,0.05852,-0.34220,0.15937,-9.76365,-0.110715,0.000666,0.005063
669.2273,0.01386,-0.33270,0.19522,-9.86762,-0.109916,-0.001199,0.001199
669.2409,0.01358,-0.33745,0.08049,-9.77547,-0.105253,0.000799,0.001599
669.2545,0.01362,-0.32558,0.15219,-9.81800,-0.103121,-0.032908,0.005995
669.2680,0.01354,-0.37543,0.17132,-9.67386,-0.102188,0.001865,0.004130
669.2855,0.01747,-0.34932,0.21434,-9.79673,-0.112181,0.000533,0.004663
669.3319,0.04645,-0.30896,0.13068,-9.69040,-0.104853,-0.001199,0.003331
669.3450,0.01306,-0.30896,0.15697,-9.75184,-0.110982,0.004130,0.002798
669.3580,0.01294,-0.31608,0.12112,-9.72112,-0.107651,-0.000133,0.001998
669.3708,0.01286,-0.33033,0.17132,-9.76365,-0.107651,0.001466,0.005063
669.3877,0.01685,-0.32083,0.08766,-9.77074,-0.104320,-0.000400,0.004130
669.4009,0.01320,-0.32083,0.14502,-9.80146,-0.106718,0.001865,0.006795
669.4140,0.01313,-0.35881,0.31712,-9.85581,-0.106851,0.033041,0.002132
669.4607,0.04668,-0.31371,0.09005,-9.80146,-0.108184,0.002798,0.003064
669.4738,0.01316,-0.35169,0.17849,-9.76365,-0.105919,-0.033308,0.005596
669.4907,0.01689,-0.35644,0.14263,-9.84872,-0.104453,0.002398,0.004530
669.5038,0.01312,-0.25674,0.11634,-9.70458,-0.103521,0.002398,0.004397
669.5170,0.01312,-0.35881,0.14263,-9.72112,-0.112181,0.001332,0.003464
669.5301,0.01314,-0.30184,0.10439,-9.81091,-0.107651,-0.033574,0.004397
669.5431,0.01305,-0.35406,0.21434,-9.70694,-0.104587,0.001199,0.003464
669.5898,0.04670,-0.36119,0.20000,-9.80855,-0.107651,0.000533,0.001732
669.6067,0.01686,-0.34220,0.18805,-9.76838,-0.104853,0.000666,0.003331
669.6198,0.01312,-0.37780,0.15458,-9.66441,-0.104054,0.001199,0.001199
669.6329,0.01307,-0.30421,0.13546,-9.78019,-0.105386,0.000266,0.007194
669.6460,0.01308,-0.29947,0.17132,-9.78728,-0.110182,-0.033974,0.003198
669.6590,0.01306,-0.27573,0.18327,-9.71876,-0.107518,-0.033708,0.001998
669.6721,0.01303,-0.34457,0.11156,-9.78256,-0.103254,0.005462,0.003864
669.7187,0.04664,-0.32083,0.16893,-9.71403,-0.107384,0.000933,0.005196
669.7364,0.01770,-0.29947,0.15219,-9.74948,-0.104720,0.001732,0.001599
669.7498,0.01339,-0.32795,0.14263,-9.83690,-0.103521,0.001599,0.005063
669.7630,0.01316,-0.35644,0.07332,-9.81800,-0.100856,0.000666,0.002798
669.7761,0.01317,-0.28285,0.14502,-9.77310,-0.107917,0.003198,0.002531
669.7895,0.01334,-0.33745,0.19761,-9.80382,-0.107384,0.003064,0.005196
669.8028,0.01328,-0.36831,0.12590,-9.81564,-0.104720,-0.000799,0.003331
669.8495,0.04677,-0.33507,0.14980,-9.75893,-0.107784,-0.033041,0.005462
669.8665,0.01698,-0.31846,0.15697,-9.94796,-0.104320,0.003064,0.004397
669.8796,0.01314,-0.32083,0.16893,-9.76129,-0.107118,-0.000799,0.005196
669.8928,0.01313,-0.30421,0.15458,-9.76129,-0.107518,0.003064,0.000799
669.9080,0.01527,-0.33507,0.08527,-9.74239,-0.105519,0.001066,0.004130
669.9213,0.01324,-0.32083,0.18088,-9.84872,-0.108051,0.000799,0.002398
669.9347,0.01338,-0.34220,0.17132,-9.76365,-0.104720,0.003198,0.002798
669.9814,0.04677,-0.34694,0.18088,-9.78256,-0.104054,-0.006528,0.001998
669.9985,0.01704,-0.42053,0.14980,-9.80382,-0.110049,0.003198,0.002398
670.0117,0.01316,-0.32795,0.14741,-9.72348,-0.107651,-0.000933,0.004530
670.0248,0.01314,-0.39442,0.13307,-9.82509,-0.106185,0.034107,0.002665
670.0379,0.01314,-0.31371,0.19283,-9.89361,-0.105386,-0.000266,0.001865
670.0511,0.01318,-0.34694,0.13307,-9.71167,-0.103787,0.003198,0.003864
670.0642,0.01314,-0.37306,0.18805,-9.77547,-0.109516,0.002531,0.005196
670.1109,0.04666,-0.33745,0.14980,-9.76129,-0.104853,0.002665,0.002132
670.1286,0.01772,-0.33270,0.11873,-9.77310,-0.109383,0.000933,0.001998
670.1427,0.01405,-0.29947,0.18566,-9.92197,-0.068614,0.000533,0.003864
670.1566,0.01389,-0.33270,0.08288,-9.87707,-0.105519,0.005729,0.004663
670.1706,0.01400,-0.36119,0.16893,-9.74002,-0.104853,0.032508,0.000933
670.1844,0.01385,-0.29234,0.17132,-9.69749,-0.105119,-0.000666,0.005063
670.1983,0.01387,-0.25674,0.09961,-9.72112,-0.102855,0.007328,0.001199
670.2452,0.04693,-0.34694,0.19044,-9.78256,-0.105519,0.003464,0.002531
670.2631,0.01783,-0.28285,0.18088,-9.71876,-0.102188,-0.002398,0.006262
670.2769,0.01380,-0.39205,0.12351,-9.74711,-0.106718,0.002531,0.003997
670.2904,0.01358,-0.31371,0.35058,-9.69276,-0.111381,0.002132,0.003864
670.3039,0.01352,-0.29709,0.19044,-9.84635,-0.105519,0.001732,0.003597
670.3179,0.01390,-0.34457,0.17849,-9.82981,-0.105119,0.001865,0.002665
670.3317,0.01383,-0.34457,0.17371,-9.66441,-0.110449,0.000400,0.003198
670.3790,0.04736,-0.33507,0.14502,-9.72348,-0.068348,0.001732,0.006129
670.3966,0.01752,-0.35406,0.12590,-9.75184,-0.106718,0.001199,0.007328
670.4106,0.01400,-0.36119,0.16176,-9.69513,-0.110449,0.002531,0.002665
670.4244,0.01382,-0.34457,0.16654,-9.79673,-0.107384,0.002398,0.004397
670.4382,0.01382,-0.34220,0.15219,-9.76838,-0.102322,0.032375,0.003864
670.4524,0.01422,-0.32795,0.17132,-9.74002,-0.105919,-0.003997,0.003198
670.4663,0.01387,-0.35644,0.08527,-9.72348,-0.106985,0.002531,0.004663
670.5137,0.04740,-0.36593,0.13068,-9.77074,-0.104720,0.004263,0.004130
670.5313,0.01760,-0.38492,0.16176,-9.82273,-0.112447,-0.001998,0.003464
670.5451,0.01387,-0.33745,0.14502,-9.75656,-0.107118,0.002798,0.004130
670.5590,0.01382,-0.36119,0.15937,-9.69749,-0.107784,-0.000133,0.005196
670.5727,0.01377,-0.33507,0.14024,-9.72821,-0.104853,0.003864,0.001599
670.5866,0.01386,-0.36356,0.16176,-9.66441,-0.105919,0.000666,0.005729
670.6004,0.01378,-0.33033,0.14263,-9.71167,-0.107917,0.001066,0.001599
670.6476,0.04724,-0.31608,0.19044,-9.68331,-0.105253,-0.033708,0.007194
670.6646,0.01696,-0.28285,0.17132,-9.82745,-0.110182,0.002665,0.005329
670.6782,0.01361,-0.36593,0.20239,-9.83927,-0.107651,-0.000799,0.000400
670.6917,0.01349,-0.31371,0.14024,-9.78728,-0.107917,0.034107,0.003864
670.7052,0.01350,-0.35881,0.18088,-9.82036,-0.107651,-0.001865,0.003064
670.7191,0.01390,-0.40629,0.15697,-9.76365,-0.109116,0.033708,0.005063
670.7329,0.01381,-0.33982,0.21912,-9.84399,-0.105652,0.001066,0.004930
670.7802,0.04734,-0.34694,0.21673,-9.77547,-0.108717,-0.003730,0.001199
670.7988,0.01860,-0.36831,0.17132,-9.77310,-0.105652,0.033574,0.003464
670.8129,0.01411,-0.31846,0.11156,-9.78019,-0.105386,0.005063,0.003997
670.8269,0.01396,-0.30421,0.13307,-9.78964,-0.110449,0.002798,0.002531
670.8407,0.01384,-0.34932,0.20239,-9.90307,-0.106452,0.000133,0.002931
670.8547,0.01393,-0.35169,0.11156,-9.74239,-0.107651,0.001066,0.004663
670.8685,0.01385,-0.33745,0.14741,-9.70222,-0.104853,0.000799,0.005063
670.9181,0.04956,-0.33982,0.15219,-9.78964,-0.105386,0.001466,0.003864
670.9357,0.01766,-0.38492,0.19522,-9.71167,-0.106052,-0.000000,0.002665
670.9497,0.01394,-0.30421,0.11634,-9.76838,-0.105786,0.001732,0.001066
670.9636,0.01394,-0.30421,0.12829,-9.79437,-0.106319,0.000533,0.005596
670.9775,0.01389,-0.35406,0.13307,-9.69276,-0.106052,-0.000666,0.003331
670.9914,0.01388,-0.30896,0.18566,-9.80146,-0.106985,0.001066,0.005995
671.0053,0.01386,-0.31846,0.17610,-9.73530,-0.103387,0.001998,0.004263
671.0530,0.04775,-0.30184,0.16415,-9.92669,-0.103387,0.000799,0.003597
671.0702,0.01717,-0.27098,0.19522,-9.77547,-0.136429,-0.002798,0.004796
671.0838,0.01364,-0.33507,0.16893,-9.77074,-0.105253,0.003997,0.005729
671.0974,0.01357,-0.34694,0.13546,-9.79437,-0.109649,-0.001998,0.005063
671.1109,0.01356,-0.39205,0.35536,-9.71167,-0.106319,0.003730,0.007194
671.1249,0.01399,-0.31608,0.13546,-9.70694,-0.103654,-0.006528,0.005196
671.1388,0.01390,-0.33745,0.16654,-9.77074,-0.105786,0.003730,0.003997
671.1863,0.04746,-0.39917,0.16415,-9.78728,-0.103787,0.002931,0.003730
671.2039,0.01760,-0.30659,0.17849,-9.95505,-0.107784,-0.002931,0.005329
671.2178,0.01392,-0.38492,0.13785,-9.83218,-0.108317,0.006262,0.004796
671.2317,0.01384,-0.34932,0.16176,-9.80146,-0.109649,0.001332,0.001599
671.2455,0.01384,-0.35644,0.15697,-9.78019,-0.107917,0.000266,0.003331
671.2593,0.01380,-0.35169,0.13546,-9.74475,-0.107784,0.000666,0.004130
671.2731,0.01382,-0.38967,0.20239,-9.78728,-0.108717,0.003864,0.004130
671.3204,0.04731,-0.33745,0.17371,-9.80855,-0.104187,-0.001332,0.003997
671.3390,0.01863,-0.32795,0.16654,-9.74475,-0.108450,-0.001332,0.004930
671.3532,0.01415,-0.35881,0.17610,-9.81327,-0.108184,0.003064,0.004530
671.3671,0.01387,-0.35169,0.09244,-9.72821,-0.106052,-0.005063,0.003997
671.3809,0.01379,-0.38492,0.18088,-9.79437,-0.104720,0.002132,0.001998
671.3947,0.01386,-0.32320,0.09961,-9.74239,-0.104453,0.003730,0.003198
671.4085,0.01377,-0.34694,0.19522,-9.78256,-0.110315,0.003331,0.004930
671.4557,0.04721,-0.32795,0.10678,-9.74948,-0.106052,0.001466,0.002531
671.4728,0.01711,-0.37543,0.16176,-9.75656,-0.108317,0.001599,0.004130
671.4864,0.01360,-0.33745,0.16893,-9.83690,-0.107118,0.002132,0.002798
671.4999,0.01348,-0.32083,0.10678,-9.76365,-0.104187,0.000799,0.000799
671.5134,0.01349,-0.36119,0.14024,-9.91961,-0.107518,-0.000666,0.005462
671.5272,0.01383,-0.25199,0.13307,-9.66914,-0.113646,0.034107,0.002265
671.5410,0.01378,-0.35406,0.19044,-9.80146,-0.105786,0.003064,0.002931
671.5883,0.04734,-0.31371,0.06615,-9.92433,-0.107917,0.003198,0.003997
671.6066,0.01828,-0.37068,0.16415,-9.66914,-0.109516,0.000666,0.004397
671.6206,0.01395,-0.33507,0.14263,-9.84635,-0.104187,0.001732,0.002398
671.6344,0.01386,-0.32795,0.11873,-9.76129,-0.107384,-0.002265,0.004130
671.6482,0.01378,-0.26861,0.14980,-9.91488,-0.107118,-0.001066,0.003997
671.6620,0.01384,-0.35881,0.14741,-9.69985,-0.110715,-0.001066,0.003864
671.6759,0.01383,-0.38018,0.15458,-9.81564,-0.104187,0.002132,0.004130
671.7233,0.04745,-0.33270,0.19044,-9.79437,-0.104720,-0.033974,0.004663
671.7410,0.01770,-0.33982,0.17371,-9.75420,-0.104453,0.000933,0.033708
671.7549,0.01394,-0.33033,0.12112,-9.75656,-0.068481,-0.002531,0.005995
671.7688,0.01385,-0.30421,0.19283,-9.78492,-0.109516,-0.001466,0.003464
671.7828,0.01403,-0.36356,0.13068,-9.78728,-0.111381,-0.000400,0.002931
671.7967,0.01388,-0.28522,0.10678,-9.72112,-0.106185,0.004263,0.003997
671.8106,0.01386,-0.32558,0.11395,-9.92906,-0.101922,-0.002132,0.003597
671.8578,0.04728,-0.28285,0.20239,-9.75420,-0.106585,-0.001332,0.004930
671.8757,0.01782,-0.34694,0.15937,-9.80146,-0.105786,-0.033308,0.034107
671.8895,0.01380,-0.35881,0.14024,-9.81564,-0.108717,-0.001066,0.001066
671.9049,0.01547,-0.34457,0.17132,-9.77547,-0.105519,-0.002265,0.005596
671.9186,0.01366,-0.28760,0.20478,-9.78492,-0.105919,-0.001066,0.004130
671.9324,0.01384,-0.29709,0.12351,-9.72348,-0.103920,0.001998,0.005729
671.9463,0.01392,-0.38967,0.10678,-9.73057,-0.106452,0.001732,0.003198
671.9938,0.04744,-0.31608,0.15219,-9.74711,-0.103254,0.001466,0.001332
672.0114,0.01764,-0.35169,0.09961,-9.77074,-0.105119,0.001466,0.005196
672.0255,0.01405,-0.33982,0.09722,-9.78019,-0.108051,0.033574,0.004796
672.0419,0.01643,-0.29947,0.17610,-9.75893,-0.101256,-0.001865,0.003064
672.0558,0.01392,-0.28997,0.21195,-9.85344,-0.103254,0.003064,0.006662
672.0698,0.01395,-0.33745,0.10917,-9.83454,-0.108583,-0.001466,0.003730
672.0837,0.01386,-0.31371,0.10439,-9.70931,-0.107251,0.001332,0.003198
672.1312,0.04752,-0.32795,0.11156,-9.67386,-0.110049,-0.003730,0.007194
672.1488,0.01761,-0.28760,0.14741,-9.80382,-0.108983,-0.000266,0.002931
672.1627,0.01394,-0.28048,0.21195,-9.77310,-0.101789,-0.033441,0.000133
672.1766,0.01384,-0.31846,0.11395,-9.77783,-0.105652,-0.000266,0.002531
672.1905,0.01392,-0.30421,0.15458,-9.81091,-0.105786,0.005596,0.002265
672.2043,0.01378,-0.31608,0.11873,-9.82273,-0.104587,0.000666,0.002798
672.2205,0.01626,-0.40154,0.29322,-9.73530,-0.106718,0.001066,0.005196
672.2677,0.04721,-0.24487,0.13546,-9.88652,-0.105519,0.003064,0.007727
672.2847,0.01700,-0.33270,0.16176,-9.92669,-0.106052,0.033974,0.006795
672.2983,0.01357,-0.33270,0.11156,-9.79673,-0.105119,0.004263,0.007061
672.3118,0.01347,-0.30659,0.16654,-9.79910,-0.102455,0.001732,0.006662
672.3253,0.01350,-0.33507,0.20956,-9.76838,-0.108583,0.000400,0.001332
672.3389,0.01360,-0.29709,0.12351,-9.72821,-0.102322,-0.000666,0.001199
672.3527,0.01381,-0.35406,0.12590,-9.74475,-0.106452,-0.000000,0.003730
672.4000,0.04730,-0.30421,0.16176,-9.72585,-0.107651,0.000799,0.003331
672.4183,0.01837,-0.37543,0.20717,-9.69985,-0.105786,-0.000000,0.004530
672.4351,0.01673,-0.28760,0.12351,-9.74475,-0.108983,0.002265,0.001199
672.4487,0.01359,-0.35644,0.32668,-9.71639,-0.135629,0.003997,0.002665
672.4622,0.01354,-0.35406,0.14980,-9.87235,-0.104720,0.002265,0.003864
672.4757,0.01346,-0.28997,0.35297,-9.86762,-0.110315,-0.001066,0.003864
672.4892,0.01356,-0.35644,0.20956,-9.84635,-0.103920,-0.033708,0.000933
672.5361,0.04684,-0.36593,0.14502,-9.80855,-0.104986,0.001599,0.005063
672.5537,0.01762,-0.29234,0.06615,-9.75184,-0.109116,0.005462,0.003730
672.5675,0.01386,-0.35169,0.13785,-9.73766,-0.105386,-0.003064,0.004263
672.5814,0.01381,-0.38255,0.14263,-9.78964,-0.106319,0.000133,0.004397
672.5951,0.01378,-0.32320,0.17132,-9.78256,-0.105253,-0.002265,0.007461
672.6114,0.01623,-0.33033,0.14502,-9.76838,-0.105119,0.001066,0.003864
672.6252,0.01382,-0.38730,0.14263,-9.80146,-0.102855,0.002265,0.003730
672.6724,0.04724,-0.32083,0.17132,-9.73057,-0.105919,-0.002132,0.005196
672.6895,0.01704,-0.35644,0.15697,-9.77310,-0.104187,-0.000266,0.001732
672.7030,0.01356,-0.35406,0.17610,-9.66914,-0.106851,0.002132,0.004130
672.7165,0.01346,-0.37068,0.13307,-9.78492,-0.106319,0.002265,0.003730
672.7300,0.01352,-0.26861,0.16415,-9.72112,-0.107118,-0.001199,0.004530
672.7435,0.01350,-0.34694,0.14024,-9.73766,-0.105919,0.000400,0.002531
672.7575,0.01393,-0.32795,0.17132,-9.77074,-0.106185,-0.000266,0.002931
672.8050,0.04758,-0.36356,0.16654,-9.74948,-0.107784,-0.001599,0.001199
672.8252,0.02014,-0.29234,0.16893,-9.75420,-0.109383,0.001066,0.005729
672.8392,0.01398,-0.32558,0.20956,-9.75893,-0.105119,-0.002398,0.004663
672.8530,0.01388,-0.27573,0.12590,-9.80855,-0.107651,-0.003997,0.001599
672.8669,0.01388,-0.39205,0.10200,-9.73530,-0.103254,0.001332,0.007061
672.8807,0.01383,-0.16890,0.15697,-9.83927,-0.109516,0.006795,0.001732
672.8946,0.01383,-0.27573,0.11156,-9.65260,-0.110049,-0.001732,0.003331
672.9440,0.04948,-0.38018,0.11634,-9.69513,-0.104853,0.003464,0.003331
672.9625,0.01850,-0.34457,0.07571,-9.84163,-0.106851,-0.004130,0.002398
672.9766,0.01410,-0.30421,0.17610,-9.70222,-0.135096,0.004397,0.003997
672.9906,0.01393,-0.34932,0.16415,-9.69749,-0.108450,0.000666,0.003464
673.0069,0.01635,-0.36831,0.17610,-9.76129,-0.106319,0.006795,0.001998
673.0208,0.01389,-0.25199,0.07332,-9.83454,-0.109649,0.000933,0.033708
673.0681,0.04732,-0.39442,0.17610,-9.82273,-0.106985,-0.000933,0.004796
673.0852,0.01710,-0.31846,0.13068,-9.85581,-0.105919,-0.033841,0.002132
673.0988,0.01358,-0.30659,0.16176,-9.84635,-0.105119,-0.003064,0.001599
673.1123,0.01352,-0.33982,0.12590,-9.78964,-0.106052,0.003730,0.004397
673.1259,0.01358,-0.29709,0.19761,-9.92669,-0.107917,-0.001466,0.003064
673.1394,0.01353,-0.33745,0.17371,-9.85581,-0.107118,0.001732,0.005862
673.1529,0.01350,-0.33270,0.14741,-9.80382,-0.100323,-0.001066,0.003464
673.2004,0.04743,-0.28760,0.16415,-9.70931,-0.105253,0.002665,0.003997
673.2203,0.01995,-0.34220,0.13307,-9.74711,-0.104054,0.001332,0.005196
673.2342,0.01389,-0.28285,0.17132,-9.78964,-0.107651,-0.000000,0.000133
673.2480,0.01381,-0.32795,0.18327,-9.75893,-0.109916,0.003730,0.003064
673.2618,0.01381,-0.28997,0.15937,-9.73530,-0.108051,0.001332,0.005729
673.2757,0.01384,-0.31846,0.12829,-9.80146,-0.103521,0.002132,0.003864
673.2895,0.01383,-0.31134,0.17849,-9.72112,-0.107384,-0.000266,0.003997
673.3368,0.04733,-0.27810,0.16415,-9.76129,-0.105519,0.002265,0.003997
673.3544,0.01761,-0.32558,0.12351,-9.70931,-0.106985,0.002798,0.007727
673.3683,0.01387,-0.26623,0.14502,-9.68095,-0.106052,0.003464,0.004397
673.3821,0.01382,-0.37068,0.16654,-9.79437,-0.068481,0.003198,0.003331
673.3984,0.01627,-0.32320,0.15458,-9.79201,-0.105253,0.001599,0.004663
673.4122,0.01380,-0.36593,0.15697,-9.94796,-0.107118,-0.001466,0.000400
673.4261,0.01387,-0.35644,0.32190,-9.80146,-0.104587,-0.001732,0.001732
673.4734,0.04737,-0.26148,0.12829,-9.84163,-0.108051,-0.001332,0.002531
673.4919,0.01841,-0.31371,0.14741,-9.80146,-0.106585,0.033574,0.002398
673.5061,0.01428,-0.31371,0.14741,-9.94087,-0.109516,-0.001066,0.005196
673.5200,0.01384,-0.31134,0.30995,-9.76365,-0.102988,0.004263,0.004130
673.5339,0.01397,-0.27335,0.20000,-9.78728,-0.103254,-0.000400,0.003331
673.5478,0.01387,-0.33270,0.19761,-9.75420,-0.106851,0.005063,0.001466
673.5616,0.01381,-0.32795,0.13307,-9.81091,-0.109250,0.000533,0.004530
673.6110,0.04937,-0.29472,0.12829,-9.76365,-0.104720,-0.002398,0.003331
673.6280,0.01697,-0.34694,0.05659,-9.78728,-0.136162,-0.032775,0.004397
673.6415,0.01355,-0.33982,0.11156,-9.78492,-0.102588,0.000133,0.003997
673.6550,0.01348,-0.32558,0.10917,-9.75656,-0.105786,0.000933,0.004130
673.6685,0.01351,-0.33507,0.18566,-9.92906,-0.107917,-0.000933,0.003064
673.6824,0.01384,-0.36119,0.15458,-9.80146,-0.107518,0.000666,0.006795
673.6961,0.01377,-0.32083,0.18566,-9.78492,-0.101389,-0.001332,0.007861
673.7437,0.04757,-0.34457,0.14741,-9.82981,-0.104320,0.032508,0.003997
673.7614,0.01766,-0.31134,0.14741,-9.69985,-0.106585,-0.033841,0.002665
673.7753,0.01393,-0.34220,0.35058,-9.72821,-0.105919,0.002665,0.001865
673.7918,0.01655,-0.31371,0.13546,-9.80382,-0.106851,-0.000533,0.004530
673.8058,0.01399,-0.35644,0.15937,-9.81800,-0.107384,0.033841,0.002132
673.8197,0.01389,-0.36593,0.23107,-9.78256,-0.106851,0.000533,0.003464
673.8336,0.01387,-0.36831,0.18327,-9.74239,-0.107118,-0.001732,0.003198
673.8810,0.04742,-0.26861,0.15937,-9.81327,-0.103654,0.002132,0.006928
673.8988,0.01776,-0.34932,0.19283,-9.81327,-0.106718,0.034107,0.003464
673.9148,0.01602,-0.32320,0.15697,-9.78019,-0.102855,0.001998,0.003730
673.9288,0.01396,-0.29947,0.19761,-9.77783,-0.104320,0.006129,0.000266
673.9426,0.01389,-0.32795,0.16654,-9.74711,-0.103387,-0.001466,0.002931
673.9565,0.01384,-0.28760,0.14741,-9.78256,-0.106851,-0.001066,0.004663
673.9728,0.01627,-0.29947,0.17849,-9.75893,-0.106985,0.033708,0.004663
674.0197,0.04699,-0.37780,0.18327,-9.71639,-0.103254,-0.001332,0.002398
674.0375,0.01778,-0.31608,0.13546,-9.66677,-0.106452,0.003597,0.003864
674.0513,0.01377,-0.38255,0.18805,-9.78964,-0.106052,0.000133,0.000266
674.0648,0.01353,-0.36593,0.12829,-9.72112,-0.108583,-0.000933,0.003997
674.0784,0.01359,-0.31846,0.15697,-9.75656,-0.109783,0.003064,0.002265
674.0923,0.01387,-0.35169,0.13785,-9.78019,-0.109916,0.003997,0.005462
674.1061,0.01385,-0.19976,0.18088,-9.83927,-0.068348,-0.001066,0.004530
674.1535,0.04741,-0.33982,0.21673,-9.84635,-0.104320,0.003064,0.005462
674.1713,0.01773,-0.33745,0.14502,-9.78256,-0.101655,0.002265,0.002931
674.1877,0.01644,-0.26148,0.15219,-9.92669,-0.107118,0.000799,0.004796
674.2016,0.01392,-0.35881,0.12112,-9.70222,-0.106052,0.003198,0.005196
674.2154,0.01381,-0.31134,0.16176,-9.78019,-0.104320,-0.003464,0.003730
674.2293,0.01381,-0.36831,0.18566,-9.79910,-0.103920,0.002132,0.003198
674.2430,0.01379,-0.25199,0.13546,-9.76838,-0.107118,-0.001865,0.001599
674.2904,0.04732,-0.34457,0.15219,-9.77547,-0.103920,0.002931,0.002798
674.3079,0.01750,-0.32558,0.15697,-9.74948,-0.107384,-0.033974,0.001466
674.3218,0.01389,-0.31371,0.07810,-9.85581,-0.104054,0.002531,0.001599
674.3356,0.01380,-0.35881,0.12829,-9.77547,-0.105253,0.002398,0.003597
674.3493,0.01379,-0.29947,0.18088,-9.72821,-0.106052,0.003730,0.004530
674.3656,0.01624,-0.34220,0.13546,-9.76129,-0.103254,-0.000133,0.005862
674.3794,0.01383,-0.32320,0.15219,-9.77783,-0.106452,-0.003597,0.001599
674.4264,0.04700,-0.31608,0.12112,-9.82273,-0.102855,0.003730,0.005462
674.4434,0.01698,-0.37543,0.17132,-9.73293,-0.103787,0.001865,0.004530
674.4569,0.01354,-0.34220,0.14741,-9.83218,-0.106718,0.031975,0.004130
674.4704,0.01352,-0.35169,0.17132,-9.73293,-0.106718,0.004130,0.001466
674.4839,0.01346,-0.28048,0.17371,-9.82509,-0.105652,-0.001066,0.002798
674.4978,0.01384,-0.32083,0.18088,-9.94796,-0.106052,0.002531,0.003997
674.5115,0.01379,-0.31846,0.19761,-9.74239,-0.105786,-0.033708,0.005063
674.5589,0.04731,-0.38730,0.16415,-9.71403,-0.106585,0.001599,0.004130
674.5798,0.02095,-0.31608,0.14024,-9.80382,-0.106319,0.003597,0.002931
674.5938,0.01397,-0.26623,0.17610,-9.72585,-0.103387,-0.002132,0.002398
674.6073,0.01354,-0.31134,0.11156,-9.73057,-0.102721,0.000666,0.003464
674.6208,0.01349,-0.27810,0.16176,-9.68331,-0.108184,-0.001199,0.001998
674.6343,0.01350,-0.30896,0.13068,-9.69040,-0.104320,0.000933,0.005995
674.6477,0.01343,-0.28997,0.16654,-9.78019,-0.106185,0.000933,0.002931
674.6947,0.04699,-0.14279,0.15697,-9.74711,-0.107251,-0.001599,0.004130
674.7123,0.01761,-0.37068,0.11634,-9.79201,-0.110049,0.001466,0.004397
674.7263,0.01396,-0.32320,0.19522,-9.79910,-0.104054,-0.001865,0.005462
674.7403,0.01396,-0.43478,0.12112,-9.76365,-0.107518,0.003464,0.001599
674.7566,0.01633,-0.29709,0.17132,-9.77074,-0.106319,-0.002665,0.002132
674.7705,0.01392,-0.26386,0.32429,-9.75420,-0.108450,0.000400,0.002665
674.7845,0.01401,-0.28997,0.17849,-9.76365,-0.106319,0.034107,0.005462
674.8317,0.04715,-0.32558,0.15937,-9.75184,-0.105253,-0.000533,0.002531
674.8487,0.01706,-0.34694,0.15458,-9.67386,-0.108583,0.000799,0.003464
674.8623,0.01357,-0.29947,0.23824,-9.76365,-0.107384,0.033974,0.004796
674.8758,0.01355,-0.34457,0.14741,-9.93378,-0.106185,0.001199,0.003064
674.8894,0.01355,-0.38018,0.14263,-9.78964,-0.104187,0.033175,0.003597
674.9055,0.01607,-0.33033,0.16415,-9.77310,-0.104986,0.001865,0.005596
674.9194,0.01398,-0.37780,0.18327,-9.77310,-0.105652,-0.001332,0.003464
674.9694,0.04992,-0.28760,0.15937,-9.76365,-0.107917,0.002132,0.007461
674.9871,0.01769,-0.31371,0.15937,-9.94560,-0.102455,0.003730,0.007328
675.0007,0.01364,-0.38255,0.15937,-9.74002,-0.105253,0.001199,0.002265
675.0143,0.01357,-0.36119,0.11395,-9.77547,-0.106851,0.002665,0.005196
675.0277,0.01348,-0.36119,0.14263,-9.79910,-0.106452,0.001998,0.004130
675.0415,0.01379,-0.35406,0.14502,-9.77310,-0.136296,0.001466,0.001732
675.0552,0.01371,-0.31846,0.15458,-9.75893,-0.103787,0.002265,0.002531
675.1024,0.04721,-0.30421,0.16415,-9.74239,-0.104587,-0.000133,0.004130
675.1212,0.01875,-0.31846,0.16654,-9.71639,-0.105119,0.003064,0.006395
675.1354,0.01422,-0.29472,0.16415,-9.75420,-0.103787,-0.001332,0.004263
675.1519,0.01645,-0.34694,0.17132,-9.80146,-0.103254,0.003464,0.002398
675.1658,0.01393,-0.31134,0.14502,-9.79437,-0.108317,-0.001466,0.002798
675.1797,0.01391,-0.26861,0.19522,-9.80146,-0.106718,-0.033175,0.005862
675.1936,0.01389,-0.37780,0.13068,-9.78019,-0.106319,-0.032242,0.003597
675.2410,0.04737,-0.35881,0.16176,-9.96214,-0.104720,-0.000133,0.005196
675.2586,0.01762,-0.36831,0.11634,-9.77074,-0.107784,-0.000133,0.003997
675.2724,0.01386,-0.32320,0.17610,-9.73057,-0.106319,-0.003464,-0.003464
675.2863,0.01381,-0.38492,0.22868,-9.95505,-0.107384,0.033708,0.003597
675.3000,0.01379,-0.36831,0.13785,-9.77310,-0.102855,0.002798,0.000799
675.3138,0.01380,-0.31846,0.15219,-9.72112,-0.108450,0.002398,0.004530
675.3301,0.01624,-0.33507,0.15458,-9.74948,-0.103121,0.002398,0.001066
675.3774,0.04733,-0.34220,0.11395,-9.73530,-0.103654,0.002531,0.005063
675.3950,0.01759,-0.31608,0.13546,-9.83690,-0.102855,0.003198,0.003064
675.4086,0.01358,-0.32083,0.16176,-9.76602,-0.104853,0.002132,0.004263
675.4221,0.01356,-0.32795,0.09961,-9.82509,-0.107651,-0.000933,0.002798
675.4356,0.01346,-0.34220,0.18088,-9.74948,-0.103920,0.001066,-0.032908
675.4491,0.01345,-0.30896,0.12351,-9.72585,-0.105519,-0.031842,0.003064
675.4625,0.01348,-0.31846,0.18805,-9.83218,-0.109383,-0.002665,0.004796
675.5094,0.04687,-0.26623,0.12590,-9.80619,-0.108051,-0.001199,0.000533
675.5270,0.01759,-0.37780,0.12590,-9.79673,-0.105652,-0.033175,0.002398
675.5434,0.01636,-0.35169,0.15697,-9.89834,-0.110182,0.000133,0.004663
675.5572,0.01387,-0.33270,0.14263,-9.71639,-0.105652,0.004130,0.004397
675.5710,0.01381,-0.38255,0.12351,-9.75184,-0.105919,0.000400,0.003464
675.5848,0.01376,-0.33270,0.15458,-9.68804,-0.108717,-0.001865,0.004796
675.5986,0.01378,-0.36831,0.13307,-9.66677,-0.110449,0.005196,0.005596
675.6455,0.04694,-0.28522,0.13068,-9.81327,-0.104587,-0.005329,0.002931
675.6632,0.01773,-0.29709,0.13785,-9.73293,-0.104853,0.002665,0.002931
675.6770,0.01378,-0.31608,0.14502,-9.85817,-0.108051,0.000400,0.006795
675.6906,0.01356,-0.37068,0.14741,-9.72585,-0.109116,0.001599,0.008260
675.7041,0.01354,-0.31134,0.19761,-9.85581,-0.105652,0.003198,0.004930
675.7207,0.01655,-0.32320,0.12112,-9.79437,-0.107384,0.000400,0.002665
675.7346,0.01394,-0.30896,0.18805,-9.73530,-0.106718,0.001066,0.004530
675.7823,0.04767,-0.36356,0.14024,-9.80855,-0.106185,-0.000799,0.002398
675.8000,0.01768,-0.30421,0.14263,-9.76838,-0.107917,-0.001332,0.005462
675.8140,0.01399,-0.31371,0.14980,-9.73766,-0.108184,-0.000400,0.003864
675.8278,0.01382,-0.34694,0.13546,-9.72821,-0.106985,0.001998,0.003198
675.8416,0.01385,-0.34457,0.14024,-9.91961,-0.110449,-0.000133,0.003730
675.8555,0.01386,-0.31371,0.14502,-9.76129,-0.105253,0.002265,0.003331
675.8693,0.01386,-0.31608,0.13785,-9.77783,-0.107917,-0.000000,0.002665
675.9189,0.04952,-0.29709,0.21912,-9.70694,-0.106585,0.034107,0.007594
675.9390,0.02017,-0.24961,0.13785,-9.82273,-0.106718,0.000400,0.001332
675.9530,0.01394,-0.29947,0.17610,-9.75656,-0.108184,0.034107,0.004530
675.9668,0.01388,-0.30184,0.16415,-9.71167,-0.106851,-0.002265,0.002798
675.9807,0.01382,-0.32558,0.14502,-9.76838,-0.105652,-0.003997,0.002798
675.9945,0.01386,-0.33507,0.19283,-9.76129,-0.104720,0.001732,-0.000000
676.0419,0.04737,-0.33270,0.14741,-9.74239,-0.106585,0.001199,0.005063
676.0590,0.01712,-0.31371,0.14980,-9.78492,-0.100323,0.000666,0.003331
676.0726,0.01358,-0.38018,0.17849,-9.69513,-0.107651,0.000133,0.005196
676.0861,0.01356,-0.34694,0.16893,-9.78492,-0.106718,-0.000133,0.005995
676.0996,0.01350,-0.34220,0.13546,-9.85344,-0.106718,0.001998,0.002265
676.1154,0.01579,-0.37543,0.17132,-9.77547,-0.106319,-0.001732,0.002265
676.1294,0.01396,-0.33745,0.15697,-9.81564,-0.104187,0.001599,0.001199
676.1768,0.04741,-0.32558,0.14502,-9.76602,-0.107784,0.003198,0.003464
676.1953,0.01850,-0.27335,0.15697,-9.81800,-0.106052,0.000266,0.003331
676.2094,0.01409,-0.14279,0.18327,-9.75420,-0.105519,-0.001865,0.006662
676.2233,0.01388,-0.33270,0.16176,-9.76838,-0.103920,0.000266,0.006262
676.2371,0.01380,-0.33745,0.14741,-9.80855,-0.108717,0.002931,0.004130
676.2509,0.01383,-0.35169,0.16893,-9.70222,-0.106851,0.001599,0.003064
676.2647,0.01378,-0.28760,0.14024,-9.76365,-0.105253,-0.001466,0.003997
676.3120,0.04731,-0.31608,0.17371,-9.71639,-0.107518,-0.004263,0.002931
676.3319,0.01995,-0.33033,0.15219,-9.79910,-0.106452,0.033708,0.003331
676.3458,0.01390,-0.34457,0.15937,-9.76365,-0.106985,0.000666,0.001865
676.3597,0.01382,-0.33270,0.18327,-9.80382,-0.104986,0.001998,0.003597
676.3735,0.01379,-0.29947,0.19761,-9.73530,-0.108317,0.002665,0.006528
676.3872,0.01378,-0.37543,0.19283,-9.78019,-0.104986,0.000799,0.001998
676.4010,0.01373,-0.35644,0.14980,-9.73293,-0.104054,-0.033708,0.001332
676.4481,0.04714,-0.33982,0.18566,-9.80382,-0.105386,0.003597,0.003064
676.4651,0.01703,-0.36356,0.21434,-9.75893,-0.105919,-0.000000,0.005329
676.4787,0.01357,-0.30896,0.15219,-9.78019,-0.105652,0.003464,0.005462
676.4922,0.01347,-0.34220,0.21195,-9.79437,-0.108450,0.001998,0.007328
676.5078,0.01564,-0.29947,0.06137,-9.93378,-0.108850,0.002798,0.002931
676.5217,0.01388,-0.38967,0.34580,-9.78728,-0.108184,0.001066,0.002265
676.5355,0.01381,-0.35881,0.15219,-9.73057,-0.109250,0.002132,0.004263
676.5828,0.04730,-0.29947,0.30517,-9.71639,-0.106185,0.005596,0.004263
676.6003,0.01750,-0.39205,0.12351,-9.80146,-0.105652,0.033974,0.004130
676.6142,0.01390,-0.32558,0.10917,-9.74711,-0.105786,0.000533,0.004397
676.6280,0.01383,-0.33745,0.21195,-9.86526,-0.106319,0.000266,0.006928
676.6418,0.01380,-0.29472,0.20239,-9.77310,-0.106452,0.001732,0.003730
676.6556,0.01377,-0.39917,0.18566,-9.73766,-0.104986,0.033708,0.002132
676.6694,0.01382,-0.29709,0.16176,-9.81327,-0.103121,0.000799,0.006662
676.7192,0.04979,-0.38730,0.14741,-9.74948,-0.106585,0.004663,0.001332
676.7376,0.01842,-0.35169,0.12590,-9.85817,-0.106585,0.001199,0.001199
676.7518,0.01419,-0.34694,0.06854,-9.94796,-0.105253,0.004530,0.003597
676.7658,0.01393,-0.30896,0.19522,-9.72348,-0.105786,-0.001732,0.002798
676.7798,0.01402,-0.31134,0.07810,-9.73530,-0.103121,0.000933,0.005063
676.7937,0.01389,-0.29709,0.17371,-9.70694,-0.105119,0.001332,0.001466
676.8075,0.01387,-0.33033,0.15219,-9.74239,-0.109250,0.000266,0.006395
676.8549,0.04738,-0.40154,0.14502,-9.79201,-0.106319,0.000666,0.004796
676.8720,0.01707,-0.30184,0.15937,-9.74475,-0.104587,0.000933,0.003597
676.8856,0.01365,-0.32558,0.08049,-9.77310,-0.068747,0.003597,0.002265
676.9032,0.01757,-0.37543,0.17849,-9.77547,-0.104320,0.002931,0.004530
676.9168,0.01363,-0.33982,0.14741,-9.84399,-0.106851,0.000400,0.003464
676.9304,0.01360,-0.33745,0.12351,-9.78256,-0.109916,-0.033841,0.003730
676.9439,0.01349,-0.31846,0.08527,-9.86998,-0.105119,0.003464,0.001998
676.9908,0.04691,-0.32320,0.12112,-9.82273,-0.105919,0.003730,0.005329
677.0079,0.01701,-0.36593,0.16893,-9.76838,-0.108717,-0.033441,0.003331
677.0218,0.01395,-0.32558,0.19522,-9.79910,-0.106052,0.000133,0.003597
677.0358,0.01397,-0.33033,0.14263,-9.73530,-0.105253,0.000933,0.004263
677.0497,0.01392,-0.30421,0.16893,-9.73293,-0.106185,-0.000933,0.001732
677.0636,0.01388,-0.34694,0.15937,-9.78019,-0.106585,-0.033441,0.005862
677.0799,0.01636,-0.31846,0.12351,-9.78728,-0.102855,0.000133,0.005329
677.1274,0.04746,-0.40629,0.13307,-9.74948,-0.105786,0.001199,0.002931
677.1450,0.01764,-0.37068,0.14502,-9.82509,-0.107518,0.033841,0.000799
677.1590,0.01394,-0.33982,0.13307,-9.92669,-0.106985,0.002398,0.003331
677.1729,0.01397,-0.37543,0.06854,-9.84163,-0.106585,0.000533,0.001466
677.1868,0.01387,-0.35406,0.18327,-9.82273,-0.106985,0.001066,0.002265
677.2006,0.01379,-0.37068,0.22868,-9.78256,-0.105786,0.033974,0.002798
677.2144,0.01379,-0.29472,0.13546,-9.75893,-0.104187,0.002798,0.006662
677.2616,0.04722,-0.30896,0.16654,-9.86053,-0.105919,0.001865,0.003198
677.2795,0.01785,-0.33507,0.19761,-9.82745,-0.104320,-0.002398,0.002798
677.2954,0.01594,-0.29234,0.09722,-9.78019,-0.106585,-0.033041,0.002798
677.3089,0.01350,-0.32320,0.14502,-9.72821,-0.109250,-0.000400,0.003997
677.3224,0.01353,-0.32795,0.13307,-9.70222,-0.107251,0.003064,0.005862
677.3363,0.01381,-0.30659,0.14263,-9.66441,-0.106052,-0.002398,0.006129
677.3500,0.01379,-0.30421,0.14741,-9.77074,-0.106185,-0.001066,0.004930
677.3974,0.04733,-0.35644,0.07093,-9.78256,-0.104587,0.001466,0.001998
677.4149,0.01754,-0.34932,0.16415,-9.74475,-0.104187,0.001865,0.003997
677.4288,0.01384,-0.36356,0.21912,-9.77310,-0.106319,0.001466,0.005596
677.4426,0.01385,-0.33270,0.15937,-9.78728,-0.108051,-0.001332,0.003464
677.4564,0.01378,-0.32795,0.19044,-9.72348,-0.107118,0.001865,0.005462
677.4726,0.01625,-0.38967,0.14024,-9.78964,-0.105652,0.001865,0.005462
677.4865,0.01382,-0.33270,0.08288,-9.80146,-0.106452,-0.000933,0.004663
677.5338,0.04733,-0.35169,0.16415,-9.77547,-0.106985,0.001865,0.005329
677.5514,0.01756,-0.39442,0.14024,-9.89361,-0.105786,-0.001332,0.003997
677.5652,0.01387,-0.36831,0.17849,-9.66677,-0.108317,0.002265,0.003730
677.5790,0.01381,-0.34457,0.07571,-9.72112,-0.105519,-0.001332,0.001732
677.5928,0.01376,-0.40866,0.13307,-9.74002,-0.105386,-0.001332,0.004397
677.6066,0.01381,-0.36593,0.14024,-9.77547,-0.108583,0.003864,0.004663
677.6204,0.01375,-0.31608,0.17371,-9.72348,-0.108983,0.000266,0.004130
677.6677,0.04733,-0.29472,0.11873,-9.81564,-0.104587,-0.000533,0.001998
677.6869,0.01925,-0.33507,0.18566,-9.80146,-0.103521,-0.001599,0.002265
677.7006,0.01367,-0.36831,0.17610,-9.72112,-0.103254,0.002265,0.001865
677.7142,0.01359,-0.29947,0.11634,-9.81564,-0.105253,0.002798,0.006662
677.7277,0.01353,-0.36356,0.11873,-9.79437,-0.104187,-0.033041,0.002931
677.7413,0.01353,-0.38018,0.16176,-9.81327,-0.109383,-0.001066,0.000933
677.7552,0.01390,-0.33033,0.33146,-9.76129,-0.106452,0.002132,0.006662
677.8028,0.04761,-0.32795,0.11873,-9.86762,-0.105919,0.001998,0.005329
677.8224,0.01964,-0.33270,0.14502,-9.78492,-0.104320,-0.033974,0.001865
677.8366,0.01420,-0.28760,0.13546,-9.81327,-0.105652,0.000533,0.001466
677.8506,0.01399,-0.28522,0.18327,-9.70931,-0.103121,0.001066,0.003997
677.8670,0.01638,-0.31608,0.15219,-9.76602,-0.107784,-0.002931,0.005063
677.8808,0.01385,-0.26861,0.09005,-9.83454,-0.105119,0.002798,0.005862
677.9304,0.04954,-0.34220,0.06376,-9.78492,-0.106585,-0.001332,0.005596
677.9480,0.01765,-0.33745,0.16415,-9.81091,-0.105119,-0.001332,0.003464
677.9617,0.01365,-0.40866,0.11634,-9.83690,-0.101389,0.000400,0.002265
677.9752,0.01353,-0.32320,0.17132,-9.77310,-0.103521,0.033708,0.003064
677.9887,0.01351,-0.39205,0.08766,-9.71639,-0.106452,0.001332,0.005862
678.0023,0.01354,-0.32083,0.12829,-9.78256,-0.104587,0.034107,0.003331
678.0158,0.01350,-0.33507,0.17371,-9.81564,-0.106452,0.004263,0.003864
678.0629,0.04713,-0.31371,0.17371,-9.71167,-0.107384,-0.001466,0.001466
678.0830,0.02011,-0.35644,0.16176,-9.71403,-0.104587,-0.001332,0.003464
678.0969,0.01393,-0.29947,0.13546,-9.74711,-0.102988,0.000533,0.003864
678.1108,0.01387,-0.30184,0.11634,-9.72821,-0.106052,0.033841,0.005862
678.1246,0.01379,-0.36356,0.18805,-9.74711,-0.108983,0.002931,0.003464
678.1384,0.01385,-0.30184,0.14502,-9.74475,-0.108184,-0.000799,0.003997
678.1520,0.01355,-0.37780,0.20478,-9.80855,-0.104720,-0.033708,0.003597
678.1990,0.04701,-0.36356,0.12829,-9.68331,-0.104187,-0.033574,0.005995
678.2160,0.01699,-0.34694,0.12112,-9.74475,-0.106452,0.001732,-0.033708
678.2296,0.01359,-0.33982,0.09722,-9.81327,-0.107251,0.001199,0.004263
678.2431,0.01352,-0.34457,0.18805,-9.69040,-0.105786,0.003864,0.003464
678.2594,0.01634,-0.32795,0.14263,-9.78728,-0.136296,-0.000533,0.002798
678.2733,0.01384,-0.34694,0.13546,-9.72112,-0.104054,-0.000133,0.005995
678.2871,0.01380,-0.38492,0.18805,-9.84399,-0.105786,0.002398,0.002931
678.3344,0.04730,-0.34220,0.17371,-9.81800,-0.105652,-0.001066,0.004530
678.3528,0.01842,-0.30421,0.16176,-9.79910,-0.104587,0.001599,0.004930
678.3669,0.01407,-0.29709,0.16654,-9.71167,-0.103254,0.033841,0.003597
678.3807,0.01384,-0.30896,0.22151,-9.80382,-0.109649,0.003864,0.002132
678.3945,0.01382,-0.35644,0.14263,-9.74239,-0.105919,-0.001466,0.002531
678.4083,0.01378,-0.29472,0.13785,-9.78728,-0.104986,-0.001998,0.003464
678.4221,0.01381,-0.29709,0.18805,-9.72348,-0.109649,0.000666,0.005063
678.4717,0.04961,-0.35169,0.17610,-9.66441,-0.106185,0.002531,0.004263
678.4888,0.01701,-0.27573,0.18327,-9.77074,-0.108450,0.003198,0.003864
678.5023,0.01358,-0.35169,0.20000,-9.81564,-0.106185,0.001599,0.005196
678.5158,0.01347,-0.32558,0.12829,-9.76838,-0.106319,-0.001199,0.006528
678.5293,0.01348,-0.30421,0.14502,-9.80855,-0.107251,-0.002132,0.004397
678.5428,0.01348,-0.33745,0.18327,-9.94796,-0.106452,0.001732,0.004397
678.5562,0.01343,-0.34932,0.12112,-9.74948,-0.104320,-0.033041,0.005063
678.6035,0.04730,-0.25911,0.18327,-9.80382,-0.106185,-0.000933,0.006662
678.6210,0.01752,-0.36356,0.10439,-9.69749,-0.105919,0.000933,0.002665
678.6349,0.01391,-0.32320,0.15697,-9.77310,-0.102455,0.033841,0.001865
678.6512,0.01627,-0.30896,0.17371,-9.74239,-0.110182,0.034107,0.003730
678.6650,0.01379,-0.36356,0.17371,-9.70931,-0.103920,0.001732,0.004930
678.6794,0.01444,-0.29947,0.17371,-9.78964,-0.105919,0.001466,0.001599
678.6942,0.01479,-0.31608,0.17371,-9.76365,-0.106985,0.002265,0.005462
678.7427,0.04849,-0.32083,0.15458,-9.72112,-0.105786,0.000133,0.002265
678.7600,0.01732,-0.34220,0.19761,-9.80382,-0.105786,0.033974,0.004263
678.7737,0.01371,-0.33982,0.14741,-9.67859,-0.107917,0.004397,0.003997
678.7875,0.01378,-0.31371,0.19522,-9.74711,-0.106718,0.000400,0.005329
678.8012,0.01370,-0.28997,0.11156,-9.88889,-0.104986,-0.001066,0.005862
678.8148,0.01360,-0.35169,0.12590,-9.78728,-0.104986,-0.000533,0.002132
678.8306,0.01577,-0.39679,0.20239,-9.89361,-0.106052,0.001732,0.003331
678.8779,0.04728,-0.33507,0.15458,-9.77783,-0.106585,0.002798,0.005462
678.8965,0.01864,-0.36593,0.09483,-9.66914,-0.108717,-0.000000,0.005729
678.9129,0.01640,-0.37068,0.12829,-9.78019,-0.107118,0.000666,0.005729
678.9269,0.01404,-0.30421,0.13546,-9.73293,-0.106452,0.002931,0.002132
678.9408,0.01389,-0.31134,0.18805,-9.81091,-0.107251,0.003864,0.001865
678.9548,0.01392,-0.31846,0.18327,-9.74239,-0.106052,0.000799,0.005196
678.9686,0.01386,-0.36356,0.15697,-9.82036,-0.105786,0.003997,0.003597
679.0156,0.04703,-0.33745,0.08766,-9.83690,-0.108583,-0.000933,0.005196
679.0327,0.01707,-0.32558,0.08527,-9.83690,-0.107518,0.002132,0.004663
679.0486,0.01588,-0.25199,0.17610,-9.85108,-0.107384,0.001066,0.002265
679.0621,0.01356,-0.33745,0.19044,-9.80855,-0.110315,0.001599,0.003997
679.0757,0.01352,-0.32320,0.12351,-9.79437,-0.103787,-0.001466,-0.033441
679.0896,0.01395,-0.30659,0.14024,-9.77547,-0.105386,-0.000799,0.003864
679.1035,0.01387,-0.27573,0.14980,-9.69749,-0.107917,0.001066,0.006795
679.1509,0.04743,-0.29472,0.14741,-9.78019,-0.108317,-0.001599,0.005596
679.1686,0.01765,-0.32558,0.11156,-9.80146,-0.107251,-0.032908,0.002132
679.1826,0.01404,-0.30184,0.17849,-9.77074,-0.103920,0.003997,0.005596
679.1965,0.01387,-0.29947,0.16893,-9.83218,-0.106718,-0.000799,0.003997
679.2103,0.01383,-0.32083,0.14263,-9.73766,-0.103521,0.002665,0.002265
679.2266,0.01627,-0.31608,0.16415,-9.73057,-0.104720,0.000533,0.003464
679.2404,0.01382,-0.34932,0.12829,-9.80146,-0.110449,0.001599,0.005329
679.2878,0.04736,-0.34457,0.12590,-9.73766,-0.105253,-0.002665,0.003198
679.3054,0.01760,-0.34220,0.14502,-9.79201,-0.105386,0.000799,0.002398
679.3193,0.01390,-0.37068,0.12829,-9.76838,-0.110449,0.001998,0.005729
679.3332,0.01392,-0.34220,0.12351,-9.79201,-0.105519,0.001732,0.001466
679.3470,0.01380,-0.35881,0.14741,-9.78728,-0.105786,0.000533,0.005329
679.3607,0.01376,-0.37306,0.10439,-9.77074,-0.106985,0.004130,0.003331
679.3745,0.01378,-0.35881,0.12829,-9.94796,-0.107518,0.003997,0.006262
679.4217,0.04717,-0.29709,0.19761,-9.81327,-0.108450,-0.000533,0.004130
679.4420,0.02026,-0.33270,0.16654,-9.70222,-0.106185,-0.001066,0.003331
679.4557,0.01375,-0.34694,0.17371,-9.81091,-0.108983,0.002665,0.003864
679.4693,0.01357,-0.32320,0.13546,-9.79673,-0.106452,0.001066,0.003864
679.4828,0.01349,-0.31846,0.13546,-9.85581,-0.105919,0.003464,0.003064
679.4966,0.01384,-0.30421,0.11873,-9.92433,-0.105652,-0.004796,0.003464
679.5105,0.01383,-0.33982,0.14980,-9.94323,-0.102188,0.003997,0.004397
679.5578,0.04737,-0.32795,0.16415,-9.82745,-0.106452,0.002531,-0.033574
679.5754,0.01755,-0.28997,0.35536,-9.75184,-0.109250,-0.000666,0.003730
679.5893,0.01391,-0.36119,0.12590,-9.87944,-0.104587,0.001865,0.003064
679.6031,0.01384,-0.38018,0.14502,-9.83690,-0.108317,-0.033974,0.004663
679.6194,0.01627,-0.32558,0.12112,-9.78964,-0.104720,-0.033041,0.002398
679.6332,0.01384,-0.32083,0.12112,-9.74711,-0.106052,0.000266,0.001732
679.6470,0.01379,-0.34694,0.14741,-9.74475,-0.105652,0.000799,0.003331
679.6944,0.04735,-0.33745,0.15458,-9.78728,-0.105386,0.001199,0.003730
679.7119,0.01751,-0.28285,0.15937,-9.79673,-0.135763,-0.001732,0.000133
679.7258,0.01395,-0.42053,0.18327,-9.77310,-0.105386,-0.033708,0.004930
679.7397,0.01387,-0.33270,0.20239,-9.68095,-0.108583,-0.001199,0.004796
679.7536,0.01387,-0.31608,0.14980,-9.80146,-0.108583,0.002531,0.003464
679.7674,0.01384,-0.30421,0.15697,-9.76602,-0.104720,-0.001066,0.003597
679.7812,0.01381,-0.34220,0.13546,-9.78019,-0.108850,0.002665,0.002398
679.8309,0.04969,-0.38018,0.10917,-9.80619,-0.102721,-0.000533,0.002531
679.8480,0.01707,-0.31371,0.15937,-9.83454,-0.105786,-0.000799,0.002931
679.8616,0.01365,-0.35406,0.16415,-9.78964,-0.106185,0.003597,0.002531
679.8752,0.01357,-0.35644,0.19283,-9.78964,-0.103787,-0.033974,0.003064
679.8887,0.01351,-0.36119,0.18088,-9.74475,-0.106185,0.002665,0.005862
679.9047,0.01597,-0.30896,0.16176,-9.79437,-0.104853,0.002132,0.003597
679.9189,0.01420,-0.31371,0.16415,-9.71403,-0.103654,0.002398,0.002798
679.9664,0.04751,-0.34220,0.13068,-9.77310,-0.106319,0.002798,0.003464
679.9860,0.01959,-0.35169,0.10439,-9.79437,-0.105119,0.034107,0.001865
679.9999,0.01390,-0.31608,0.31234,-9.71639,-0.106851,-0.003198,0.003198
680.0157,0.01586,-0.31846,0.05181,-9.78728,-0.107784,0.003064,0.004397
680.0294,0.01363,-0.36356,0.15697,-9.66677,-0.107384,0.002531,0.003597
680.0430,0.01359,-0.32795,0.06854,-9.94560,-0.105919,0.001732,0.003864
680.0565,0.01353,-0.12855,0.16415,-9.76365,-0.108317,0.004930,0.001865
680.1036,0.04712,-0.32083,0.15697,-9.82273,-0.105119,0.003597,0.001998
680.1213,0.01771,-0.36119,0.18088,-9.87944,-0.107784,0.001732,0.005196
680.1354,0.01410,-0.29947,0.15697,-9.84163,-0.105386,0.003064,0.004263
680.1494,0.01395,-0.35406,0.20956,-9.87944,-0.106985,-0.033041,0.006129
680.1632,0.01385,-0.34932,0.09244,-9.77310,-0.105519,0.002665,0.003997
680.1771,0.01385,-0.33745,0.19044,-9.68095,-0.106718,0.001998,0.003331
680.1934,0.01634,-0.30421,0.12351,-9.85817,-0.103787,0.002132,0.034107
680.2404,0.04698,-0.31846,0.16415,-9.79437,-0.106851,0.001732,0.005196
680.2574,0.01706,-0.32558,0.12829,-9.74002,-0.106985,-0.001865,0.005063
680.2710,0.01358,-0.32083,0.15937,-9.78492,-0.105119,0.001865,0.005596
680.2845,0.01347,-0.38255,0.16415,-9.84635,-0.111381,0.001599,0.005329
680.2980,0.01354,-0.31134,0.17132,-9.78256,-0.105253,0.004397,0.004263
680.3119,0.01382,-0.36119,0.14741,-9.84163,-0.104720,0.001332,0.003464
680.3257,0.01382,-0.34220,0.15219,-9.73766,-0.108583,0.002132,0.005329
680.3730,0.04732,-0.30421,0.18327,-9.94087,-0.105652,0.003198,0.005329
680.3906,0.01759,-0.31608,0.17610,-9.67622,-0.106185,0.000133,0.003464
680.4069,0.01633,-0.36356,0.13068,-9.75184,-0.104853,0.000666,0.003464
680.4205,0.01360,-0.36831,0.17849,-9.78728,-0.106851,0.000933,0.003997
680.4340,0.01350,-0.29234,0.12112,-9.91724,-0.105652,0.000533,0.001199
680.4475,0.01347,-0.29947,0.18805,-9.85344,-0.106185,0.034107,0.001732
680.4609,0.01346,-0.34694,0.18566,-9.78964,-0.106718,0.000133,0.005329
680.5078,0.04686,-0.35406,0.19761,-9.74002,-0.107251,-0.001599,0.003198
680.5263,0.01854,-0.33270,0.18088,-9.92669,-0.102988,-0.002798,0.004263
680.5404,0.01404,-0.33270,0.09722,-9.91488,-0.107518,0.003464,0.004397
680.5542,0.01388,-0.35406,0.19522,-9.79910,-0.105253,0.001066,0.033574
680.5680,0.01379,-0.34932,0.05659,-9.74711,-0.104720,0.001998,0.004663
680.5843,0.01624,-0.32795,0.13307,-9.76365,-0.107118,-0.033708,0.003730
680.5981,0.01384,-0.34457,0.15458,-9.75420,-0.107118,-0.001466,0.002665
680.6450,0.04691,-0.37543,0.15937,-9.79673,-0.105786,0.003464,0.007461
680.6620,0.01699,-0.28522,0.16654,-9.78019,-0.104853,0.003198,0.004263
680.6756,0.01360,-0.33507,0.12351,-9.75893,-0.105652,0.034107,0.006395
680.6892,0.01354,-0.29947,0.15697,-9.74948,-0.106185,-0.000133,0.000133
680.7027,0.01352,-0.29947,0.15219,-9.86526,-0.108184,0.003331,0.002931
680.7165,0.01387,-0.33270,0.17132,-9.76365,-0.107384,-0.000666,0.004397
680.7304,0.01383,-0.30421,0.17849,-9.79910,-0.105119,0.032775,0.003997
680.7778,0.04743,-0.31371,0.14741,-9.72821,-0.108051,-0.000666,-0.000533
680.7980,0.02024,-0.35406,0.11156,-9.67622,-0.104453,-0.000666,0.001865
680.8120,0.01394,-0.34932,0.15458,-9.78492,-0.106585,0.000933,0.002665
680.8259,0.01390,-0.35406,0.17849,-9.80382,-0.107251,0.001066,0.004130
680.8398,0.01388,-0.32558,0.19522,-9.77547,-0.106452,0.000799,0.003064
680.8536,0.01386,-0.31371,0.13307,-9.79673,-0.105652,0.004130,0.001332
680.8675,0.01384,-0.30184,0.12112,-9.78728,-0.106585,-0.001199,0.000533
680.9169,0.04942,-0.31134,0.19283,-9.76129,-0.107784,0.034107,0.004530
680.9347,0.01778,-0.34220,0.18088,-9.68568,-0.105253,-0.000533,0.005862
680.9486,0.01392,-0.38967,0.15458,-9.76602,-0.070613,0.033441,0.002132
680.9624,0.01386,-0.31371,0.11395,-9.71639,-0.105386,0.001332,0.004663
680.9788,0.01632,-0.29472,0.16654,-9.78492,-0.106851,0.003730,0.003464
680.9926,0.01385,-0.32083,0.11156,-9.81564,-0.105652,-0.002265,0.002665
681.0399,0.04727,-0.34932,0.11634,-9.78256,-0.106851,0.000799,0.003464
681.0578,0.01791,-0.29234,0.16654,-9.75893,-0.068348,-0.000799,0.003331
681.0717,0.01387,-0.33745,0.12351,-9.68331,-0.107917,-0.033441,0.003864
681.0853,0.01361,-0.29472,0.06615,-9.69985,-0.106985,-0.000266,0.033574
681.0988,0.01357,-0.33033,0.16415,-9.84163,-0.110182,0.002531,0.034107
681.1123,0.01349,-0.32558,0.13546,-9.77547,-0.106985,0.000400,0.005063
681.1262,0.01389,-0.32795,0.18327,-9.91724,-0.106185,0.003198,0.002531
681.1737,0.04744,-0.37780,0.20000,-9.77783,-0.105119,0.032908,0.005862
681.1938,0.02014,-0.28522,0.15219,-9.73057,-0.104320,0.033574,0.002398
681.2077,0.01391,-0.33507,0.14024,-9.72348,-0.107118,0.000666,0.000799
681.2216,0.01391,-0.40154,0.14980,-9.73530,-0.106585,0.004130,0.004130
681.2354,0.01384,-0.33745,0.18088,-9.95505,-0.105786,-0.033175,0.003198
681.2492,0.01380,-0.29947,0.14980,-9.81800,-0.109250,-0.002265,0.005596
681.2630,0.01379,-0.33745,0.16893,-9.77783,-0.108184,0.002665,0.003864
681.3103,0.04730,-0.32795,0.11873,-9.82745,-0.107118,0.001066,0.003064
681.3280,0.01770,-0.34220,0.07810,-9.78728,-0.107118,0.003198,0.004930
681.3420,0.01395,-0.36593,0.13785,-9.78492,-0.106718,0.002931,0.004397
681.3558,0.01383,-0.38492,0.16176,-9.81091,-0.106718,0.001599,0.001998
681.3721,0.01625,-0.36831,0.15219,-9.79673,-0.105786,0.003464,0.004530
681.3859,0.01383,-0.27810,0.14024,-9.80382,-0.104986,0.002531,0.008394
681.3997,0.01378,-0.30896,0.12351,-9.96450,-0.105519,0.002265,0.001599
681.4469,0.04726,-0.37543,0.12829,-9.75656,-0.106585,-0.000266,0.001066
681.4639,0.01697,-0.31371,0.15458,-9.77547,-0.106452,-0.001199,0.004130
681.4775,0.01358,-0.31371,0.19761,-9.75893,-0.107251,0.001599,0.006528
681.4910,0.01351,-0.34932,0.19044,-9.76838,-0.104587,-0.000799,0.005862
681.5045,0.01346,-0.37543,0.16176,-9.79437,-0.106452,0.033574,0.001732
681.5179,0.01347,-0.33507,0.13546,-9.73293,-0.106718,0.000666,0.008260
681.5318,0.01383,-0.34457,0.14980,-9.76602,-0.108051,0.002265,0.003864
681.5815,0.04978,-0.34694,0.14741,-9.74711,-0.106319,-0.002798,0.001732
681.6001,0.01855,-0.32795,0.12112,-9.76602,-0.105519,0.000933,0.000799
681.6142,0.01410,-0.34694,0.14502,-9.85581,-0.104054,-0.002398,0.003198
681.6278,0.01359,-0.33270,0.15697,-9.79201,-0.105786,-0.001332,0.001865
681.6413,0.01353,-0.34457,0.17610,-9.84163,-0.104054,0.001599,0.006662
681.6548,0.01352,-0.34457,0.16893,-9.79910,-0.107384,-0.033974,0.003064
681.6683,0.01346,-0.34932,0.19522,-9.85581,-0.105652,-0.033308,0.006528
681.7152,0.04692,-0.31134,0.19522,-9.78019,-0.104453,-0.033574,0.003730
681.7329,0.01765,-0.33270,0.14980,-9.72585,-0.106452,0.000799,0.006528
681.7468,0.01395,-0.31608,0.14741,-9.77074,-0.106851,-0.000666,0.003597
681.7632,0.01635,-0.32795,0.21195,-9.73057,-0.105652,0.002665,0.002132
681.7770,0.01383,-0.32795,0.14741,-9.78019,-0.105519,-0.033441,0.004796
681.7911,0.01406,-0.30421,0.15697,-9.77783,-0.106319,0.033974,0.003597
681.8049,0.01389,-0.36119,0.16176,-9.70694,-0.103521,0.001466,-0.000266
681.8522,0.04730,-0.33270,0.20239,-9.80146,-0.107784,-0.000266,0.005596
681.8693,0.01709,-0.35169,0.16654,-9.70458,-0.104853,0.002665,0.003730
681.8829,0.01361,-0.36593,0.09961,-9.83454,-0.105519,0.001466,0.005196
681.8984,0.01544,-0.32558,0.17610,-9.84872,-0.108583,-0.001466,0.003064
681.9120,0.01361,-0.37543,0.14980,-9.76838,-0.104720,0.032775,0.002398
681.9257,0.01368,-0.51786,0.18805,-9.83690,-0.106718,0.001199,0.003597
681.9421,0.01640,-0.39917,0.14263,-9.77547,-0.109649,0.001466,-0.000266
681.9895,0.04743,-0.29709,0.14024,-9.72112,-0.105919,0.033974,0.003730
682.0071,0.01765,-0.34457,0.19761,-9.78964,-0.107651,0.001732,0.003597
682.0211,0.01391,-0.34220,0.15697,-9.72348,-0.108717,-0.001732,0.001066
682.0349,0.01389,-0.30184,0.13068,-9.75893,-0.104986,0.000666,0.001066
682.0488,0.01382,-0.35169,0.13546,-9.82981,-0.108317,0.004263,0.002665
682.0626,0.01386,-0.35881,0.14024,-9.76365,-0.106452,-0.000266,0.002398
682.0764,0.01378,-0.36831,0.11156,-9.77074,-0.109116,0.003464,0.002265
682.1238,0.04740,-0.33270,0.15937,-9.73293,-0.104453,-0.001998,0.006528
682.1424,0.01859,-0.35406,0.18566,-9.78019,-0.104720,0.001865,0.002665
682.1591,0.01670,-0.38967,0.14024,-9.82509,-0.104587,-0.000666,0.001998
682.1730,0.01392,-0.14754,0.12351,-9.81091,-0.106185,-0.001732,0.003597
682.1869,0.01391,-0.36593,0.12829,-9.75893,-0.108983,0.000533,0.003997
682.2007,0.01379,-0.38967,0.16415,-9.66914,-0.106851,-0.002398,0.003064
682.2145,0.01380,-0.35169,0.11634,-9.74239,-0.109116,0.003597,0.005196
682.2617,0.04718,-0.31134,0.15937,-9.79201,-0.104054,0.001865,0.004130
682.2787,0.01704,-0.31371,0.13785,-9.78019,-0.108317,-0.000533,0.005196
682.2923,0.01355,-0.32795,0.12590,-9.79201,-0.106585,0.000266,0.004397
682.3058,0.01350,-0.32320,0.18088,-9.77783,-0.103654,0.002398,0.005196
682.3194,0.01363,-0.33745,0.21673,-9.73766,-0.106452,-0.000799,0.001466
682.3358,0.01636,-0.32558,0.11395,-9.74948,-0.106452,0.001066,0.005329
682.3496,0.01388,-0.40392,0.18088,-9.76365,-0.110049,0.001466,0.001998
682.3970,0.04735,-0.36356,0.12829,-9.74711,-0.106585,-0.033574,0.000933
682.4146,0.01759,-0.32083,0.14741,-9.71876,-0.107251,0.002265,-0.000400
682.4285,0.01390,-0.35881,0.12590,-9.78964,-0.109916,-0.000666,0.006395
682.4420,0.01356,-0.33982,0.12112,-9.74948,-0.106052,0.002931,0.000666
682.4555,0.01348,-0.35644,0.16415,-9.73293,-0.105519,0.000666,0.002531
682.4690,0.01349,-0.33745,0.14980,-9.85108,-0.107118,0.001066,0.001732
682.4825,0.01351,-0.37306,0.14024,-9.76602,-0.107917,0.001599,0.005995
682.5294,0.04687,-0.30659,0.14741,-9.78256,-0.105253,0.000799,0.003064
682.5494,0.02004,-0.26861,0.10678,-9.76365,-0.105919,-0.000000,0.003464
682.5634,0.01392,-0.37306,0.15697,-9.66914,-0.108317,0.001865,0.003464
682.5772,0.01384,-0.33033,0.13546,-9.89598,-0.104320,0.001865,0.003597
682.5910,0.01382,-0.33270,0.18805,-9.75420,-0.107518,0.000133,0.002665
682.6048,0.01378,-0.34932,0.12351,-9.72112,-0.104453,-0.000533,0.002665
682.6186,0.01380,-0.35881,0.11634,-9.81091,-0.107518,0.002132,0.005862
682.6658,0.04723,-0.33507,0.15697,-9.81327,-0.106319,0.001998,0.001199
682.6837,0.01790,-0.30421,0.18088,-9.79201,-0.108051,-0.001066,0.004663
682.6975,0.01378,-0.29472,0.18566,-9.73293,-0.102721,0.001599,0.001998
682.7111,0.01356,-0.34932,0.13307,-9.77783,-0.105519,0.002798,0.001599
682.7268,0.01577,-0.34220,0.18327,-9.77547,-0.106718,-0.002398,0.003464
682.7408,0.01394,-0.40866,0.14024,-9.81327,-0.104986,0.003331,0.005596
682.7547,0.01390,-0.25436,0.08527,-9.78019,-0.110182,-0.001732,0.003864
682.8023,0.04760,-0.25911,0.15458,-9.80382,-0.103787,0.001332,0.002665
682.8199,0.01766,-0.36119,0.13068,-9.74475,-0.109116,0.000533,0.003064
682.8339,0.01394,-0.34457,0.18088,-9.72821,-0.104587,0.001199,0.005462
682.8477,0.01385,-0.38255,0.11395,-9.82036,-0.105919,-0.002132,0.003597
682.8616,0.01388,-0.33270,0.15697,-9.82273,-0.108317,-0.000799,0.007194
682.8755,0.01386,-0.34932,0.05659,-9.77783,-0.107384,0.000133,0.002132
682.8893,0.01386,-0.34932,0.13546,-9.78256,-0.110049,0.033841,0.001998
682.9412,0.05185,-0.32558,0.05659,-9.69040,-0.107651,0.001332,0.001998
682.9589,0.01772,-0.29947,0.18566,-9.78728,-0.069547,0.001199,0.002931
682.9728,0.01392,-0.32795,0.15697,-9.72112,-0.104853,0.002798,0.003730
682.9867,0.01390,-0.30659,0.18566,-9.75893,-0.108583,-0.003730,0.002931
683.0006,0.01384,-0.40629,0.18327,-9.73530,-0.104587,-0.000266,0.003997
683.0146,0.01399,-0.32320,0.09005,-9.73057,-0.107384,-0.001865,0.001199
683.0621,0.04751,-0.38018,0.19283,-9.78019,-0.105519,0.000266,0.002265
683.0791,0.01708,-0.30184,0.10917,-9.71639,-0.110182,-0.033441,0.003331
683.0928,0.01362,-0.31371,0.17132,-9.76838,-0.108051,-0.000266,0.004397
683.1064,0.01359,-0.32795,0.13307,-9.84872,-0.106052,0.003331,0.003198
683.1221,0.01579,-0.36593,0.13307,-9.73293,-0.105652,0.001732,0.003331
683.1357,0.01357,-0.27335,0.14980,-9.75656,-0.104187,0.004796,0.005462
683.1493,0.01362,-0.30659,0.14263,-9.79201,-0.107384,-0.001066,0.005063
683.1963,0.04699,-0.35644,0.20000,-9.73293,-0.104453,0.001998,0.003597
683.2143,0.01793,-0.38492,0.16415,-9.75893,-0.109250,0.001199,0.005995
683.2280,0.01379,-0.32795,0.11873,-9.80382,-0.108317,0.001466,0.005462
683.2416,0.01359,-0.33270,0.15458,-9.67386,-0.108184,0.002398,0.001599
683.2555,0.01388,-0.33507,0.18805,-9.69513,-0.100989,-0.002931,0.005063
683.2694,0.01387,-0.35169,0.09005,-9.84163,-0.107917,0.003997,0.004930
683.2832,0.01384,-0.39205,0.17371,-9.83454,-0.104986,0.001199,0.002931
683.3330,0.04978,-0.33982,0.11634,-9.73293,-0.108583,0.000933,0.004663
683.3506,0.01762,-0.35169,0.15219,-9.72821,-0.104187,0.001732,0.004796
683.3642,0.01360,-0.28997,0.17132,-9.80619,-0.105253,-0.001865,0.004796
683.3777,0.01352,-0.33982,0.11156,-9.94560,-0.110315,0.003464,0.005196
683.3912,0.01350,-0.31846,0.15937,-9.75893,-0.105386,0.002531,0.003198
683.4047,0.01347,-0.34932,0.12590,-9.67386,-0.106985,0.005329,0.003730
683.4182,0.01350,-0.35644,0.17610,-9.71167,-0.112314,0.000400,0.005729
683.4652,0.04696,-0.33982,0.14502,-9.73530,-0.104853,0.000799,0.004397
683.4828,0.01762,-0.34220,0.12112,-9.67859,-0.106452,0.000533,0.004397
683.4966,0.01386,-0.35406,0.17132,-9.76365,-0.107917,0.004130,0.005862
683.5129,0.01624,-0.31371,0.11634,-9.77547,-0.108450,-0.000266,0.002531
683.5267,0.01383,-0.32558,0.13785,-9.77310,-0.106985,-0.002798,0.004263
683.5405,0.01378,-0.34932,0.13307,-9.79201,-0.102855,0.000133,0.004130
683.5543,0.01380,-0.32795,0.22151,-9.75184,-0.107917,-0.000400,0.002798
683.6014,0.04708,-0.26861,0.16654,-9.73293,-0.106319,-0.001732,0.006795
683.6184,0.01705,-0.33033,0.14980,-9.75656,-0.107118,0.000133,0.002665
683.6320,0.01355,-0.32795,0.15937,-9.70222,-0.107784,-0.002265,0.004263
683.6455,0.01350,-0.36593,0.16415,-9.73293,-0.104320,0.000933,0.002798
683.6590,0.01354,-0.36593,0.10439,-9.83454,-0.106185,-0.000533,0.002531
683.6729,0.01391,-0.35881,0.18805,-9.78019,-0.107784,0.003997,0.001466
683.6892,0.01631,-0.40392,0.15697,-9.88416,-0.104720,0.005596,0.006262
683.7367,0.04741,-0.40629,0.07810,-9.89834,-0.112714,0.002265,0.002132
683.7553,0.01863,-0.30896,0.17610,-9.71876,-0.099391,-0.005596,0.000400
683.7691,0.01385,-0.33507,0.09961,-9.91252,-0.111515,0.007061,0.002665
683.7829,0.01380,-0.39205,0.16176,-9.68331,-0.107784,-0.003597,0.001732
683.7965,0.01356,-0.51786,0.14263,-9.79673,-0.102188,0.010259,0.005329
683.8101,0.01357,-0.31846,0.14502,-9.77783,-0.106585,-0.005995,0.005329
683.8236,0.01352,-0.29709,0.20478,-9.75420,-0.108184,0.009326,0.000533
683.8707,0.04716,-0.27098,0.18566,-9.76602,-0.109383,0.006129,-0.000799
683.8884,0.01762,-0.29947,0.16415,-9.75420,-0.106585,-0.005329,0.007328
683.9068,0.01841,-0.36119,0.32190,-9.65260,-0.105253,0.004930,0.005462
683.9207,0.01393,-0.31846,0.15219,-9.89361,-0.105519,-0.004397,0.005196
683.9346,0.01389,-0.34694,0.14502,-9.67622,-0.102855,0.005462,0.004397
683.9484,0.01384,-0.33270,0.18088,-9.92433,-0.107251,0.033841,0.003464
683.9622,0.01381,-0.28997,0.13546,-9.79673,-0.106185,0.033841,0.003064
684.0093,0.04702,-0.29947,0.15937,-9.74002,-0.106052,0.002798,0.003864
684.0265,0.01723,-0.29472,0.15458,-9.81800,-0.104986,0.001865,0.005329
684.0401,0.01360,-0.32083,0.14024,-9.89125,-0.106851,-0.032642,0.000933
684.0536,0.01357,-0.37068,0.22390,-9.79910,-0.106319,0.000799,0.005862
684.0672,0.01359,-0.30896,0.12829,-9.77310,-0.107651,-0.001732,0.002798
684.0836,0.01633,-0.52261,0.15937,-9.77074,-0.105519,0.003064,0.006795
684.0975,0.01390,-0.35169,0.16415,-9.76602,-0.105119,-0.000666,0.006528
684.1449,0.04741,-0.37068,0.18805,-9.93851,-0.110582,-0.002531,0.007061
684.1625,0.01764,-0.32083,0.20717,-9.71403,-0.100723,-0.002798,0.003864
684.1762,0.01366,-0.39442,0.10200,-9.91961,-0.110982,0.003464,0.001732
684.1898,0.01359,-0.14279,0.06376,-9.69749,-0.108717,-0.004530,0.003864
684.2033,0.01352,-0.39917,0.11873,-9.82509,-0.101256,0.008394,0.001332
684.2168,0.01347,-0.35406,0.34580,-9.74948,-0.113646,-0.007727,0.001599
684.2303,0.01349,-0.40866,0.16176,-9.89361,-0.101123,0.010126,0.001066
684.2772,0.04690,-0.30659,0.18327,-9.93378,-0.102455,-0.001865,0.004397
684.2980,0.02084,-0.26148,0.32668,-9.71639,-0.105119,-0.000266,0.002398
684.3121,0.01413,-0.30896,0.14980,-9.74002,-0.104187,0.003198,0.004130
684.3260,0.01391,-0.27810,0.14263,-9.73530,-0.108450,-0.001732,0.001865
684.3398,0.01380,-0.39442,0.34580,-9.73766,-0.107784,0.004930,0.003198
684.3536,0.01382,-0.31608,0.10917,-9.76365,-0.105386,-0.002665,0.005596
684.3675,0.01388,-0.38967,0.18088,-9.76838,-0.107384,0.004130,0.000799
684.4145,0.04701,-0.28760,0.10678,-9.82036,-0.108583,-0.033308,0.002665
684.4315,0.01699,-0.32320,0.14741,-9.68331,-0.108850,0.002265,0.002798
684.4451,0.01354,-0.31608,0.11395,-9.80855,-0.104453,0.033441,0.004130
684.4586,0.01351,-0.35644,0.12829,-9.76129,-0.104054,-0.002265,0.006528
684.4742,0.01568,-0.32558,0.16893,-9.85108,-0.109916,0.001599,0.003331
684.4881,0.01384,-0.35406,0.15219,-9.78256,-0.105119,-0.033708,0.003864
684.5021,0.01399,-0.29472,0.15458,-9.67150,-0.106851,-0.000933,0.005462
684.5495,0.04742,-0.36593,0.17610,-9.84635,-0.112847,-0.003730,0.006928
684.5671,0.01757,-0.15703,0.33385,-9.51318,-0.096193,0.033708,0.003064
684.5809,0.01388,-0.55109,0.09961,-9.88889,-0.107917,0.003864,0.003331
684.5948,0.01382,-0.12380,0.23824,-9.65732,-0.110982,-0.010925,0.003464
684.6085,0.01376,-0.41816,0.11634,-9.90070,-0.098191,0.017453,0.002931
684.6223,0.01382,-0.24724,0.16176,-9.95505,-0.116844,-0.018786,0.005596
684.6361,0.01377,-0.54160,0.05898,-9.73293,-0.099657,0.011724,0.001865
684.6859,0.04983,-0.34694,0.19761,-9.85108,-0.108450,-0.000799,0.006395
684.7035,0.01757,-0.32795,0.11873,-9.70222,-0.103654,-0.002531,0.003064
684.7174,0.01389,-0.42765,0.11634,-9.78728,-0.103920,0.003064,0.003198
684.7313,0.01388,-0.29234,0.14263,-9.78019,-0.109250,-0.007994,0.001466
684.7452,0.01387,-0.32795,0.20000,-9.73530,-0.103121,0.008527,0.002931
684.7590,0.01384,-0.31371,0.17849,-9.88652,-0.108317,-0.004263,0.005862
684.7728,0.01382,-0.35406,0.14502,-9.73057,-0.109916,0.002931,0.001732
684.8202,0.04739,-0.35881,0.15937,-9.68568,-0.105786,0.005196,0.002798
684.8382,0.01800,-0.31371,0.17371,-9.71167,-0.107251,0.002132,0.003997
684.8519,0.01373,-0.30421,0.16893,-9.79910,-0.108317,0.000666,0.004130
684.8678,0.01583,-0.36831,0.12351,-9.73057,-0.105253,0.001066,0.001732
684.8814,0.01360,-0.26386,0.15937,-9.80146,-0.107651,0.001332,0.003864
684.8953,0.01392,-0.40392,0.33385,-9.74711,-0.106851,0.034107,0.003464
684.9112,0.01592,-0.32795,0.11395,-9.79673,-0.107784,-0.000666,0.005462
684.9587,0.04750,-0.40866,0.15937,-9.69513,-0.109116,-0.000666,0.004263
684.9764,0.01767,-0.33982,0.12351,-9.72821,-0.104054,0.001998,0.000533
684.9904,0.01397,-0.31608,0.19283,-9.85581,-0.112714,0.033974,0.005729
685.0042,0.01384,-0.28997,0.25258,-9.47065,-0.100723,-0.005196,0.004530
685.0180,0.01381,-0.40392,0.14741,-9.89361,-0.102855,0.010925,0.003331
685.0318,0.01381,-0.30421,0.24063,-9.79201,-0.115645,-0.010259,0.007727
685.0457,0.01386,-0.47751,0.20000,-9.74711,-0.096060,0.018786,0.001199
685.0931,0.04745,-0.24961,-0.00317,-10.02830,-0.116977,-0.009992,0.004130
685.1107,0.01762,-0.38492,0.27887,-9.53209,-0.101922,0.009060,0.003997
685.1246,0.01390,-0.34457,0.04225,-10.01649,-0.106585,0.033441,0.004663
685.1385,0.01388,-0.31371,0.18088,-9.58407,-0.108450,-0.002398,0.004796
685.1523,0.01379,-0.36119,0.12829,-9.76365,-0.096859,0.007328,0.003597
685.1662,0.01387,-0.39442,0.05659,-9.84872,-0.114979,-0.003331,0.006528
685.1801,0.01390,-0.39442,0.22629,-9.70222,-0.107384,0.006129,0.002931
685.2271,0.04700,-0.28997,0.16415,-9.79673,-0.104853,-0.000000,0.003997
685.2441,0.01698,-0.39442,0.16415,-9.73530,-0.108983,-0.002931,0.003464
685.2576,0.01357,-0.31608,0.33863,-9.73293,-0.102455,0.000266,0.001332
685.2711,0.01349,-0.31846,0.09961,-9.76365,-0.106452,-0.002665,0.005729
685.2847,0.01354,-0.35644,0.16654,-9.77547,-0.108184,0.003997,0.004397
685.2986,0.01395,-0.28285,0.11873,-9.70931,-0.106851,0.033708,0.004263
685.3124,0.01380,-0.37306,0.15219,-9.79437,-0.104320,0.001332,0.001865
685.3597,0.04733,-0.32320,0.11395,-9.95741,-0.107784,0.032109,0.004796
685.3781,0.01840,-0.33745,0.16654,-9.76129,-0.103920,0.002531,0.006129
685.3923,0.01416,-0.29709,0.16415,-9.81564,-0.110315,-0.005329,0.002665
685.4062,0.01389,-0.36831,0.16893,-9.76129,-0.107651,-0.001332,0.005729
685.4200,0.01380,-0.33270,0.08527,-9.88180,-0.135896,0.004263,0.000933
685.4338,0.01383,-0.37306,0.08766,-9.91252,-0.110848,-0.033974,0.006129
685.4476,0.01380,-0.31608,0.24780,-9.62424,-0.096060,-0.000400,0.005196
685.4949,0.04733,-0.38492,0.07093,-9.92433,-0.070213,0.007727,0.004130
685.5125,0.01753,-0.29709,0.06376,-9.58643,-0.105119,-0.031709,0.002665
685.5264,0.01391,-0.38967,0.11634,-9.85344,-0.097925,0.004930,0.000400
685.5401,0.01378,-0.28997,0.10678,-9.77547,-0.116444,-0.007594,0.005862
685.5539,0.01380,-0.37543,0.25736,-9.66677,-0.094194,0.009060,-0.000400
685.5677,0.01378,-0.28760,0.06376,-10.01412,-0.110982,-0.007594,0.007461
685.5815,0.01380,-0.35406,0.23824,-9.55572,-0.106185,0.001199,0.003464
685.6285,0.04694,-0.32795,0.19761,-9.73530,-0.099524,0.006662,0.002798
685.6455,0.01704,-0.31846,0.12351,-9.85344,-0.111914,-0.001332,0.004263
685.6591,0.01356,-0.39205,0.27648,-9.61006,-0.105386,0.005995,0.004530
685.6726,0.01353,-0.31371,0.11156,-9.84872,-0.108450,0.000666,0.001199
685.6861,0.01355,-0.36119,0.22390,-9.74002,-0.108317,0.002398,0.003198
685.7000,0.01388,-0.34932,0.18088,-9.81564,-0.069014,0.001998,0.003464
685.7139,0.01387,-0.32320,0.18566,-9.78728,-0.110315,-0.001998,0.003997
685.7613,0.04744,-0.33982,0.18566,-9.75893,-0.106452,0.004663,0.005063
685.7792,0.01785,-0.36119,0.17132,-9.72112,-0.105919,0.003464,0.002531
685.7931,0.01396,-0.34694,0.12112,-9.84163,-0.104986,0.002132,0.001199
685.8070,0.01388,-0.32795,0.13546,-9.69749,-0.108850,-0.003064,0.004796
685.8209,0.01384,-0.32320,0.16893,-9.72348,-0.095394,0.006928,0.002531
685.8347,0.01387,-0.34457,0.20239,-9.81327,-0.114179,-0.002265,0.006262
685.8485,0.01380,-0.38255,0.19522,-9.65260,-0.068481,0.005063,-0.033308
685.8980,0.04950,-0.23775,0.09244,-9.96450,-0.111781,-0.002798,0.005596
685.9166,0.01855,-0.54160,0.21195,-9.64787,-0.102455,0.010658,0.003597
685.9307,0.01416,-0.24012,0.13546,-9.89361,-0.106851,-0.004130,0.006528
685.9446,0.01388,-0.33033,0.15219,-9.74239,-0.105919,0.001332,0.003864
685.9585,0.01386,-0.31846,0.18805,-9.75420,-0.099257,0.004130,0.003198
685.9723,0.01384,-0.37543,0.12351,-9.88180,-0.113646,-0.000666,0.004397
685.9862,0.01387,-0.30421,0.12112,-9.69040,-0.104453,-0.004663,0.003464
686.0332,0.04699,-0.27335,0.15458,-9.77310,-0.100190,0.007994,0.001066
686.0503,0.01710,-0.34932,0.15937,-9.83454,-0.108850,-0.000933,0.005063
686.0639,0.01359,-0.49887,0.14024,-9.87944,-0.102721,0.001466,0.003864
686.0774,0.01356,-0.40392,0.12829,-9.86998,-0.106851,0.033175,0.006928
686.0910,0.01358,-0.35644,0.17849,-9.75656,-0.109783,0.002132,0.004796
686.1049,0.01386,-0.33982,0.18805,-9.91015,-0.101522,-0.000799,0.001466
686.1187,0.01386,-0.30896,0.17132,-9.78256,-0.107384,-0.001599,0.006262
686.1661,0.04741,-0.29947,0.14741,-9.93378,-0.106985,-0.001066,0.003864
686.1838,0.01769,-0.33033,0.18805,-9.74948,-0.105652,0.001199,-0.000666
686.1978,0.01400,-0.33270,0.09483,-9.78492,-0.106185,0.001199,0.001998
686.2117,0.01386,-0.34694,0.15697,-9.72585,-0.104320,-0.002132,0.003730
686.2255,0.01381,-0.30421,0.19761,-9.82509,-0.104853,0.002132,0.003864
686.2393,0.01380,-0.33982,0.18088,-9.74475,-0.105119,-0.000400,0.003997
686.2531,0.01376,-0.30659,0.20000,-9.73057,-0.104453,0.003064,0.005862
686.3004,0.04734,-0.36356,0.12351,-9.77547,-0.107518,-0.001332,0.004263
686.3180,0.01759,-0.28760,0.10917,-9.78492,-0.105119,0.001732,0.003464
686.3318,0.01385,-0.34457,0.14263,-9.77310,-0.104320,0.001066,0.004930
686.3457,0.01381,-0.27573,0.23585,-9.71639,-0.104453,-0.000799,0.004930
686.3594,0.01378,-0.34932,0.15219,-9.79673,-0.104453,0.001998,0.003997
686.3732,0.01378,-0.30659,0.10917,-9.76838,-0.107251,-0.000133,0.002132
686.3870,0.01378,-0.26623,0.17132,-9.75420,-0.104720,-0.000400,0.004130
686.4342,0.04719,-0.30421,0.16176,-9.69276,-0.109116,0.000266,0.001998
686.4520,0.01785,-0.29234,0.15697,-9.94796,-0.110848,0.003198,0.003198
686.4659,0.01384,-0.34220,0.14741,-9.83690,-0.105919,0.001332,0.003464
686.4794,0.01356,-0.39917,0.12351,-9.76365,-0.104587,0.002531,0.005995
686.4929,0.01350,-0.32795,0.15697,-9.74475,-0.106985,-0.000000,0.003997
686.5068,0.01385,-0.32083,0.16176,-9.72585,-0.106985,0.002132,0.002798
686.5206,0.01379,-0.33033,0.18566,-9.74239,-0.106985,0.000666,0.003064
686.5679,0.04738,-0.31846,0.16176,-9.74711,-0.104320,-0.001199,0.001998
686.5855,0.01760,-0.26623,0.17849,-9.81564,-0.105386,0.000799,0.003331
686.5994,0.01390,-0.38730,0.08766,-9.87235,-0.103654,-0.002665,0.003997
686.6133,0.01385,-0.34220,0.16176,-9.75656,-0.106185,0.002265,0.007861
686.6271,0.01382,-0.35169,0.13546,-9.75893,-0.104187,-0.033574,0.002265
686.6409,0.01378,-0.35169,0.14502,-9.79437,-0.108717,0.001865,0.007061
686.6547,0.01381,-0.30659,0.16415,-9.79437,-0.104187,0.000266,0.002798
686.7023,0.04758,-0.31608,0.16176,-9.76365,-0.108717,-0.000666,0.005462
686.7200,0.01776,-0.32795,0.18088,-9.78728,-0.110982,0.004130,0.002798
686.7340,0.01400,-0.34932,0.15697,-9.83927,-0.104720,0.003730,0.005063
686.7479,0.01385,-0.27573,0.13546,-9.76129,-0.068348,-0.000133,0.003864
686.7618,0.01390,-0.30896,0.17849,-9.72821,-0.108051,0.001998,0.004930
686.7757,0.01387,-0.30184,0.17610,-9.73766,-0.105119,0.002398,0.003997
686.7897,0.01405,-0.32083,0.19283,-9.81091,-0.104587,-0.000266,0.003198
686.8371,0.04741,-0.38492,0.09483,-9.77783,-0.135496,0.006262,0.001865
686.8543,0.01713,-0.33507,0.14263,-9.96450,-0.110715,0.005729,0.006129
686.8678,0.01359,-0.36119,0.24302,-9.67150,-0.099923,-0.000000,0.005196
686.8814,0.01355,-0.37543,0.09244,-9.81800,-0.110315,0.006262,0.003730
686.8949,0.01353,-0.29472,0.15219,-9.61006,-0.107651,-0.005063,0.004930
686.9110,0.01606,-0.34457,0.11634,-9.86526,-0.102188,0.012790,0.004263
686.9250,0.01400,-0.37543,0.18566,-9.74948,-0.110182,-0.007328,0.007061
686.9725,0.04749,-0.29234,0.21195,-9.74948,-0.068348,0.000933,0.002665
686.9911,0.01860,-0.40629,0.12351,-9.86526,-0.108450,0.000799,0.003730
687.0052,0.01414,-0.30896,0.21673,-9.70458,-0.105519,0.000266,0.001998
687.0189,0.01364,-0.34457,0.14502,-9.82745,-0.101789,0.004796,0.033974
687.0324,0.01354,-0.32795,0.22868,-9.67859,-0.108051,-0.001998,0.005462
687.0459,0.01352,-0.38018,0.19283,-9.77783,-0.103787,0.005995,0.001066
687.0594,0.01354,-0.29234,0.11634,-9.68568,-0.106452,-0.004397,0.004397
687.1064,0.04696,-0.34694,0.33146,-9.80619,-0.112980,-0.002132,0.003331
687.1241,0.01769,-0.35169,0.09483,-9.81091,-0.105652,0.003864,0.007727
687.1381,0.01396,-0.34220,0.14502,-9.77547,-0.106851,-0.001066,0.006129
687.1519,0.01385,-0.35406,0.12351,-9.86762,-0.105386,0.001865,0.002132
687.1658,0.01387,-0.35169,0.17849,-9.78728,-0.103521,-0.000933,0.004130
687.1796,0.01383,-0.32795,0.13307,-9.76602,-0.104320,0.001998,0.003331
687.1935,0.01387,-0.32320,0.11156,-9.72348,-0.106985,-0.033841,0.002665
687.2407,0.04718,-0.33507,0.31234,-9.93142,-0.104720,0.033841,0.001732
687.2577,0.01705,-0.37780,0.20239,-9.74002,-0.105652,0.003730,0.003597
687.2713,0.01357,-0.31371,0.14502,-9.81327,-0.106319,-0.000133,0.004663
687.2848,0.01348,-0.30659,0.14980,-9.96214,-0.107651,-0.001332,0.004397
687.2983,0.01350,-0.33745,0.13068,-9.65968,-0.106985,0.001732,0.004530
687.3120,0.01376,-0.34694,0.13307,-9.80855,-0.104054,0.005862,0.003331
687.3259,0.01384,-0.28760,0.21912,-9.80619,-0.108184,-0.033974,0.003198
687.3732,0.04734,-0.26386,0.16654,-9.61006,-0.106185,-0.004397,0.002265
687.3909,0.01770,-0.35644,0.07093,-9.80619,-0.112181,0.002931,0.001998
687.4048,0.01392,-0.40154,0.13307,-9.72585,-0.108184,-0.004397,0.001332
687.4187,0.01390,-0.42291,0.14263,-9.87707,-0.100856,0.006795,0.003331
687.4326,0.01387,-0.32558,0.09005,-9.94796,-0.110449,-0.002798,0.005462
687.4464,0.01383,-0.30896,0.07571,-9.73766,-0.104054,0.003331,0.000933
687.4603,0.01388,-0.31608,0.15458,-9.81564,-0.108850,-0.000666,0.004397
687.5077,0.04736,-0.27810,0.11156,-9.78256,-0.108317,-0.033708,0.005862
687.5269,0.01921,-0.36831,0.13546,-9.89361,-0.104054,0.002265,-0.000266
687.5411,0.01418,-0.33270,0.15697,-9.81564,-0.106452,-0.005196,0.005329
687.5550,0.01390,-0.31371,0.17610,-9.73766,-0.104453,0.004130,0.003730
687.5688,0.01381,-0.35169,0.15697,-9.68568,-0.106985,-0.032242,0.001998
687.5826,0.01382,-0.39442,0.15937,-9.73057,-0.103654,0.000400,0.003730
687.5963,0.01376,-0.31134,0.16176,-9.75420,-0.069014,-0.000266,0.003198
687.6438,0.04745,-0.28285,0.18805,-9.80619,-0.108450,0.032775,0.006662
687.6615,0.01768,-0.29709,0.10678,-9.83690,-0.109516,0.002531,0.001865
687.6753,0.01387,-0.33745,0.13785,-9.73530,-0.105786,0.033574,0.002931
687.6892,0.01381,-0.32795,0.19283,-9.83927,-0.108583,0.000533,0.003464
687.7029,0.01378,-0.34694,0.18805,-9.76365,-0.108450,-0.003597,0.007727
687.7168,0.01390,-0.32320,0.11156,-9.83927,-0.136429,0.005196,0.001865
687.7307,0.01381,-0.31134,0.15219,-9.75656,-0.114446,-0.002531,0.003864
687.7780,0.04734,-0.31846,0.23346,-9.68568,-0.108317,-0.000533,0.032508
687.7957,0.01773,-0.30184,0.05659,-9.82036,-0.106319,-0.005196,0.005063
687.8097,0.01398,-0.48225,0.17849,-9.76365,-0.104587,0.006262,0.005995
687.8236,0.01389,-0.28760,0.13785,-9.80146,-0.108184,0.004263,0.005329
687.8375,0.01385,-0.30896,0.13546,-9.76838,-0.106185,0.001199,0.033841
687.8514,0.01390,-0.27810,0.18327,-9.74948,-0.103121,0.000266,0.001732
687.8652,0.01388,-0.34457,0.17610,-9.86998,-0.104453,-0.001066,0.006262
687.9147,0.04946,-0.26148,0.07571,-9.76602,-0.109783,-0.003864,0.006528
687.9325,0.01776,-0.33507,0.12351,-9.84872,-0.105253,0.002398,0.004930
687.9464,0.01394,-0.34220,0.17371,-9.82745,-0.107118,-0.001865,0.001599
687.9605,0.01405,-0.32320,0.20478,-9.76602,-0.106718,0.003064,0.003064
687.9744,0.01390,-0.29947,0.12829,-9.86290,-0.106052,-0.001332,0.003730
687.9882,0.01384,-0.34932,0.13307,-9.74475,-0.106185,0.003597,0.005196
688.0021,0.01386,-0.35644,0.14024,-9.76129,-0.104320,0.001865,0.006129
688.0494,0.04735,-0.34220,0.16176,-9.77310,-0.105786,0.002931,0.003597
688.0673,0.01786,-0.33033,0.12590,-9.71876,-0.108717,-0.002265,0.003864
688.0809,0.01368,-0.33507,0.18327,-9.68331,-0.068747,0.001865,0.006262
688.0945,0.01358,-0.36593,0.10917,-9.88416,-0.108317,-0.002398,0.002798
688.1080,0.01352,-0.32083,0.19761,-9.74475,-0.107917,0.005462,0.003464
688.1244,0.01640,-0.27098,0.12829,-9.79437,-0.108983,0.002265,0.001865
688.1384,0.01399,-0.34932,0.16176,-9.70931,-0.108184,0.001332,0.005462
688.1858,0.04738,-0.31134,0.16176,-9.73530,-0.108184,0.001599,0.001732
688.2034,0.01762,-0.35406,0.15219,-9.85344,-0.108184,0.002665,0.003198
688.2173,0.01388,-0.29947,0.14741,-9.74948,-0.105919,0.001199,0.005995
688.2308,0.01354,-0.37780,0.13785,-9.71876,-0.096992,0.001732,0.003730
688.2443,0.01345,-0.33270,0.20239,-9.68095,-0.109116,-0.000933,0.006528
688.2578,0.01347,-0.33745,0.17849,-9.76129,-0.107384,0.003464,0.006129
688.2712,0.01346,-0.33745,0.15937,-9.79673,-0.104187,0.033708,0.005596
688.3180,0.04682,-0.37543,0.12590,-9.67859,-0.109516,0.003997,0.003464
688.3380,0.02000,-0.35169,0.14024,-9.76129,-0.103654,0.000666,0.001998
688.3519,0.01383,-0.37068,0.07093,-9.74711,-0.104453,0.002398,0.004130
688.3657,0.01382,-0.39205,0.19283,-9.72821,-0.106585,0.001466,0.002132
688.3795,0.01377,-0.35169,0.16654,-9.75184,-0.103121,0.004397,0.002531
688.3932,0.01376,-0.36119,0.14024,-9.77783,-0.111515,-0.000666,0.003331
688.4070,0.01376,-0.30184,0.19044,-9.79673,-0.103387,0.001998,0.004130
688.4541,0.04709,-0.35406,0.12829,-9.67150,-0.106585,0.005862,0.003198
688.4710,0.01693,-0.41341,0.17132,-9.70694,-0.107384,-0.033574,0.001732
688.4846,0.01356,-0.28997,0.16893,-9.80382,-0.102988,0.033308,0.006395
688.4981,0.01350,-0.40392,0.15937,-9.76602,-0.106851,-0.003597,0.005329
688.5137,0.01568,-0.31608,0.15697,-9.74475,-0.111914,0.002398,0.004930
688.5276,0.01384,-0.32795,0.19044,-9.82981,-0.103787,0.003997,0.005063
688.5414,0.01379,-0.29234,0.16176,-9.87707,-0.108051,-0.001332,0.005196
688.5886,0.04727,-0.31134,0.14980,-9.85581,-0.106452,-0.003331,0.003198
688.6070,0.01834,-0.37780,0.19283,-9.52500,-0.136029,0.000400,0.004130
688.6211,0.01406,-0.38967,0.08766,-9.91015,-0.110449,0.002132,0.004530
688.6346,0.01358,-0.30421,0.10917,-9.60297,-0.111914,-0.005063,0.005462
688.6481,0.01347,-0.32320,0.18088,-9.79201,-0.100590,0.012391,0.002265
688.6616,0.01349,-0.39205,0.12112,-9.90543,-0.110982,-0.007461,0.003597
688.6751,0.01348,-0.41104,0.23346,-9.67622,-0.103920,0.007461,-0.003064
688.7242,0.04913,-0.34457,0.17132,-9.84872,-0.101789,0.002132,0.003597
688.7419,0.01768,-0.35881,0.14980,-9.78492,-0.107251,0.034107,0.003864
688.7561,0.01425,-0.32795,0.18566,-9.68331,-0.101655,0.005329,0.003730
688.7701,0.01396,-0.32083,0.13307,-9.76129,-0.111781,-0.002531,0.004930
688.7841,0.01405,-0.37780,0.05181,-9.72112,-0.104853,0.004663,0.002265
688.7981,0.01401,-0.30421,0.16654,-9.66441,-0.106985,-0.001199,0.003198
688.8119,0.01378,-0.31371,0.18805,-9.75893,-0.106319,-0.001732,0.003464
688.8591,0.04716,-0.40392,0.34102,-9.83927,-0.105119,0.003331,0.004930
688.8763,0.01722,-0.33745,0.12829,-9.89361,-0.107917,-0.033841,0.001998
688.8899,0.01362,-0.32558,0.16654,-9.78019,-0.107917,0.001332,0.003997
688.9075,0.01757,-0.34932,0.16415,-9.67150,-0.104720,-0.033974,0.004130
688.9212,0.01372,-0.29234,0.17371,-9.78256,-0.135896,-0.001199,0.004397
688.9348,0.01359,-0.32083,0.14024,-9.78019,-0.106452,0.001998,0.003064
688.9484,0.01359,-0.34457,0.15937,-9.81564,-0.108317,0.033841,0.004263
688.9953,0.04690,-0.34220,0.15458,-9.71403,-0.106851,-0.000666,0.003331
689.0133,0.01795,-0.35406,0.12590,-9.85344,-0.068348,0.006395,0.003864
689.0271,0.01380,-0.29709,0.18088,-9.79673,-0.109916,-0.005329,0.003464
689.0406,0.01355,-0.34694,0.14024,-9.69749,-0.096593,0.008394,0.004263
689.0542,0.01357,-0.18789,0.12112,-9.90543,-0.108717,-0.007594,0.001732
689.0677,0.01353,-0.41104,0.21195,-9.72348,-0.105386,0.008127,0.000799
689.0835,0.01578,-0.27098,0.19522,-9.74002,-0.104587,-0.005862,0.004130
689.1306,0.04710,-0.31134,0.09244,-9.80855,-0.111115,0.002132,0.004130
689.1490,0.01846,-0.33982,0.16893,-9.81327,-0.103254,0.003198,0.002798
689.1631,0.01405,-0.29472,0.12829,-9.96214,-0.109916,-0.001466,0.005462
689.1769,0.01386,-0.37780,0.05420,-9.73293,-0.106718,0.003997,0.006528
689.1908,0.01388,-0.40392,0.17371,-9.70931,-0.102855,0.005729,0.004530
689.2046,0.01376,-0.31846,0.16654,-9.80619,-0.109916,-0.001998,0.005063
689.2184,0.01381,-0.27810,0.20478,-9.71403,-0.100989,0.000533,0.004930
689.2655,0.04709,-0.33507,0.09483,-9.82981,-0.105786,0.000666,0.008260
689.2825,0.01700,-0.35644,0.12829,-9.77310,-0.105786,0.002665,0.003730
689.2982,0.01571,-0.33033,0.19283,-9.71167,-0.109250,0.002531,0.004930
689.3117,0.01347,-0.38492,0.11395,-9.74711,-0.107384,0.002531,0.005329
689.3251,0.01347,-0.32320,0.34819,-9.73293,-0.107518,0.001332,0.004796
689.3390,0.01385,-0.38018,0.17371,-9.81564,-0.108983,-0.001998,0.003997
689.3527,0.01375,-0.33507,0.10917,-9.69985,-0.098325,0.002531,0.000533
689.4000,0.04729,-0.36119,0.09961,-9.91015,-0.115245,0.000799,0.006528
689.4176,0.01756,-0.39917,0.14741,-9.77074,-0.101256,0.003997,-0.033441
689.4315,0.01389,-0.24961,0.05898,-9.79201,-0.113646,-0.005995,0.005063
689.4453,0.01381,-0.42528,0.18566,-9.73766,-0.134564,0.003198,0.004530
689.4591,0.01378,-0.39205,0.11634,-9.75420,-0.102588,-0.002531,0.006528
689.4753,0.01623,-0.39917,0.15697,-9.79673,-0.107384,0.008394,0.004263
689.4891,0.01377,-0.38492,0.17610,-9.78728,-0.103920,0.000400,0.003997
689.5364,0.04731,-0.33745,0.12829,-9.70694,-0.111115,0.005596,0.000799
689.5539,0.01754,-0.35169,0.21912,-9.76129,-0.109116,0.000266,0.004796
689.5677,0.01384,-0.29947,0.14980,-9.82745,-0.101389,0.003997,-0.032508
689.5816,0.01381,-0.30421,0.16415,-9.95032,-0.112047,-0.003331,0.005729
689.5953,0.01378,-0.24961,0.16415,-9.54390,-0.135896,0.004130,0.003064
689.6091,0.01372,-0.32083,0.19044,-9.82509,-0.111648,-0.004397,0.003730
689.6228,0.01376,-0.29947,0.13307,-9.72821,-0.106452,0.001199,0.005063
689.6699,0.04712,-0.29472,0.14263,-9.76365,-0.106319,-0.000533,0.002665
689.6898,0.01987,-0.33745,0.20956,-9.87944,-0.108717,0.002798,0.003198
689.7036,0.01380,-0.29234,0.19761,-9.72585,-0.102721,0.000533,0.001998
689.7172,0.01363,-0.31846,0.16176,-9.81327,-0.105386,0.002398,0.006795
689.7309,0.01364,-0.32795,0.13785,-9.80855,-0.108184,-0.008394,0.005862
689.7448,0.01389,-0.32083,0.18805,-9.67386,-0.106718,0.003997,0.003331
689.7586,0.01386,-0.32320,0.17849,-9.82273,-0.099524,0.002132,0.001199
689.8062,0.04759,-0.21401,0.11156,-9.87471,-0.116444,-0.013456,0.004930
689.8238,0.01761,-0.39679,0.15219,-9.64551,-0.096726,0.014389,0.000933
689.8378,0.01396,-0.31846,0.09005,-9.91961,-0.109250,-0.011991,0.006795
689.8514,0.01359,-0.37543,0.20956,-9.75893,-0.107917,0.005862,0.005196
689.8672,0.01583,-0.36356,0.14024,-9.92433,-0.104986,0.033708,0.003864
689.8808,0.01361,-0.35406,0.12829,-9.73530,-0.109250,-0.033974,0.003997
689.8945,0.01369,-0.32795,0.15937,-9.52736,-0.099124,0.000799,0.002798
689.9437,0.04921,-0.29947,0.11634,-9.86053,-0.106452,-0.004130,0.005329
689.9614,0.01772,-0.32320,0.16893,-9.72112,-0.104587,0.008394,0.003198
689.9754,0.01391,-0.29709,0.14741,-9.80382,-0.106319,-0.001466,0.001332
689.9892,0.01384,-0.37543,0.33863,-9.81564,-0.111381,0.002132,0.007727
690.0030,0.01383,-0.29947,0.13307,-9.75656,-0.106052,-0.000933,0.002132
690.0168,0.01381,-0.31846,0.11395,-9.78256,-0.109383,-0.001865,0.005995
690.0307,0.01388,-0.37780,0.15937,-9.73766,-0.108184,0.004397,0.004130
690.0800,0.04931,-0.35644,0.15219,-9.79910,-0.108450,-0.006262,0.006662
690.0971,0.01710,-0.10718,0.21434,-9.65260,-0.102055,0.004130,0.004130
690.1107,0.01355,-0.37543,0.11634,-9.83218,-0.112580,0.001732,0.003198
690.1242,0.01350,-0.32558,0.21673,-9.66205,-0.104320,-0.005729,0.004663
690.1377,0.01353,-0.33270,0.11156,-9.90543,-0.100190,0.008527,0.004263
690.1516,0.01389,-0.23775,0.17849,-9.70222,-0.113113,-0.011724,0.002798
690.1655,0.01391,-0.43715,0.18088,-9.95505,-0.100856,0.012923,0.002398
690.2129,0.04742,-0.35644,0.10439,-9.78728,-0.107651,-0.001199,0.004796
690.2313,0.01838,-0.26386,0.30039,-9.72348,-0.106052,-0.003597,0.000933
690.2454,0.01412,-0.36119,0.11873,-9.77547,-0.107384,0.000533,0.002931
690.2618,0.01635,-0.29472,0.14741,-9.72348,-0.108317,-0.002398,0.003198
690.2756,0.01388,-0.38730,0.15937,-9.94087,-0.108051,0.006262,0.003331
690.2895,0.01381,-0.28048,0.12112,-9.74239,-0.109250,-0.001998,0.003198
690.3032,0.01379,-0.34220,0.20956,-9.73530,-0.107118,0.002265,0.003597
690.3506,0.04733,-0.37306,0.12829,-9.94087,-0.107118,0.005729,0.002265
690.3682,0.01761,-0.38018,0.13068,-9.70694,-0.108317,0.002665,0.005596
690.3821,0.01389,-0.27573,0.13068,-9.82273,-0.107384,0.000933,0.004530
690.3958,0.01377,-0.32795,0.15219,-9.76365,-0.108850,-0.000000,0.002398
690.4096,0.01380,-0.32795,0.18088,-9.80619,-0.105786,-0.000666,0.001199
690.4234,0.01377,-0.27573,0.13785,-9.74475,-0.105519,0.001066,0.003997
690.4396,0.01623,-0.35406,0.17371,-9.86762,-0.108317,-0.003331,0.005063
690.4867,0.04706,-0.24487,0.21912,-9.60061,-0.105919,-0.007461,0.001998
690.5040,0.01734,-0.31608,0.11634,-9.85108,-0.108051,0.004397,0.003331
690.5176,0.01359,-0.37543,0.05181,-9.68568,-0.108450,-0.004663,0.003198
690.5312,0.01352,-0.40154,0.15219,-9.76129,-0.102855,0.010658,0.003597
690.5447,0.01353,-0.32083,0.13068,-9.87707,-0.110982,-0.009193,0.005862
690.5585,0.01382,-0.37068,0.16893,-9.74002,-0.107118,0.004663,0.002398
690.5723,0.01375,-0.26861,0.16176,-9.76365,-0.105786,-0.006528,0.006528
690.6195,0.04725,-0.11193,0.12829,-9.77547,-0.108051,-0.000666,-0.033574
690.6370,0.01751,-0.43715,0.20717,-9.76365,-0.106319,0.004663,0.000933
690.6534,0.01636,-0.30659,0.09961,-9.79201,-0.110715,-0.003064,0.003730
690.6669,0.01353,-0.39917,0.17132,-9.70458,-0.101389,0.005462,0.001732
690.6804,0.01350,-0.29472,0.20239,-9.78019,-0.105519,-0.001998,0.004397
690.6939,0.01348,-0.33507,0.34102,-9.78019,-0.105652,-0.000266,0.003198
690.7073,0.01345,-0.35169,0.18327,-9.73057,-0.099257,0.004796,0.001066
690.7544,0.04704,-0.36356,0.13068,-9.77074,-0.108850,0.034107,0.004397
690.7728,0.01844,-0.28522,0.29322,-9.79910,-0.105386,-0.001466,0.005862
690.7873,0.01444,-0.41341,0.17610,-9.81327,-0.107251,0.002265,0.005063
690.8012,0.01391,-0.45614,0.17849,-9.73293,-0.108450,0.006395,0.006395
690.8151,0.01394,-0.25199,0.15937,-9.93851,-0.105786,-0.000933,0.006928
690.8315,0.01636,-0.36356,0.15219,-9.68095,-0.106052,0.033974,0.003198
690.8454,0.01391,-0.31608,0.09722,-9.83690,-0.103521,0.033441,0.003331
690.8924,0.04703,-0.31608,0.07093,-9.72821,-0.110315,-0.008394,0.007061
690.9113,0.01887,-0.32320,0.16654,-9.77547,-0.100190,0.004263,0.003331
690.9249,0.01361,-0.34457,0.08766,-9.85817,-0.110582,-0.002531,0.005329
690.9385,0.01357,-0.33033,0.19522,-9.68568,-0.104720,0.001998,0.001732
690.9519,0.01347,-0.35881,0.10678,-9.96214,-0.109916,0.003464,0.006928
690.9658,0.01388,-0.35406,0.18088,-9.70931,-0.106185,-0.001466,0.005329
690.9796,0.01383,-0.30184,0.16415,-9.70931,-0.101389,-0.000533,0.004130
691.0270,0.04736,-0.25674,0.09961,-9.84163,-0.104587,-0.000000,0.002931
691.0470,0.01999,-0.32558,0.07332,-9.72585,-0.106718,0.004263,0.003597
691.0610,0.01405,-0.26148,0.08049,-9.68568,-0.106718,-0.001732,0.005862
691.0750,0.01394,-0.32795,0.15458,-9.69749,-0.108450,0.003331,0.003864
691.0888,0.01388,-0.36356,0.18088,-9.70222,-0.104986,0.003331,0.003464
691.1026,0.01380,-0.31134,0.15697,-9.72821,-0.110182,-0.001466,0.002531
691.1164,0.01377,-0.33507,0.18805,-9.85581,-0.106185,0.001998,0.003331
691.1638,0.04740,-0.38018,0.18327,-9.78256,-0.104587,-0.000266,0.001066
691.1815,0.01767,-0.34694,0.09005,-9.82509,-0.104320,0.003198,0.005063
691.1954,0.01390,-0.32083,0.15219,-9.82981,-0.112980,-0.000933,0.007194
691.2092,0.01385,-0.32558,0.05420,-9.58407,-0.103254,0.001066,0.002132
691.2255,0.01625,-0.35644,0.10200,-9.84399,-0.110582,0.002931,0.003997
691.2393,0.01379,-0.30659,0.20239,-9.52263,-0.102855,-0.003464,0.000933
691.2530,0.01373,-0.32320,0.13307,-9.83218,-0.108983,0.007061,0.004263
691.3001,0.04705,-0.53448,0.19522,-9.76365,-0.110449,0.000933,0.004397
691.3178,0.01778,-0.31846,0.14263,-9.71639,-0.103654,-0.003198,0.004663
691.3315,0.01371,-0.37543,0.13546,-9.80146,-0.107118,0.005862,0.002265
691.3450,0.01348,-0.15229,0.15219,-9.74475,-0.105519,-0.001199,0.004796
691.3586,0.01354,-0.40154,0.16176,-9.79910,-0.106585,0.004796,0.003331
691.3724,0.01380,-0.26861,0.09722,-9.70931,-0.107118,-0.003864,0.002531
691.3862,0.01379,-0.38255,0.16415,-9.79201,-0.105253,0.006795,0.003464
691.4359,0.04978,-0.35169,0.10917,-9.81327,-0.109516,0.001332,0.005729
691.4535,0.01760,-0.35644,0.18088,-9.67150,-0.103920,0.004130,0.000933
691.4674,0.01389,-0.36119,0.13307,-9.74948,-0.107651,-0.001466,0.004130
691.4812,0.01379,-0.37780,0.05659,-9.75893,-0.110449,0.003997,0.005329
691.4950,0.01377,-0.33270,0.16176,-9.75420,-0.136429,0.001599,0.003730
691.5087,0.01372,-0.33982,0.13546,-9.76838,-0.108717,0.002398,0.002665
691.5225,0.01377,-0.33982,0.16654,-9.69985,-0.107118,0.000666,0.003597
691.5698,0.04731,-0.29947,0.17610,-9.82981,-0.109516,-0.001732,0.004130
691.5873,0.01753,-0.33507,0.18566,-9.66677,-0.102855,-0.001599,0.000533
691.6012,0.01385,-0.35406,0.07571,-9.82981,-0.108583,0.007861,0.000266
691.6174,0.01622,-0.36356,0.16415,-9.52027,-0.106585,-0.003464,0.004663
691.6312,0.01378,-0.28522,0.14741,-9.83927,-0.101655,0.011191,0.003730
691.6449,0.01374,-0.30659,0.14263,-9.65732,-0.109916,-0.009593,0.003597
691.6587,0.01376,-0.40392,0.17371,-9.73293,-0.098458,0.006928,0.002665
691.7057,0.04705,-0.28997,0.17610,-9.87944,-0.109516,0.003198,0.003730
691.7228,0.01707,-0.36831,0.21673,-9.71167,-0.107651,0.033974,0.003997
691.7364,0.01355,-0.36831,0.18088,-9.67622,-0.104720,-0.000933,-0.001199
691.7498,0.01347,-0.31608,0.14263,-9.78492,-0.104986,-0.001466,0.003997
691.7633,0.01347,-0.40866,0.34580,-9.80146,-0.107118,0.004530,0.002132
691.7772,0.01393,-0.35644,0.16654,-9.78728,-0.108317,0.002665,0.005063
691.7937,0.01648,-0.30421,0.19761,-9.75893,-0.106319,0.002265,0.001998
691.8412,0.04751,-0.29709,0.13546,-9.73530,-0.106052,0.033574,0.003331
691.8597,0.01852,-0.35644,0.18327,-9.72348,-0.106985,0.003064,0.004130
691.8737,0.01392,-0.31371,0.07810,-9.79673,-0.109783,0.000400,0.002531
691.8872,0.01358,-0.33507,0.16654,-9.93615,-0.104054,0.000266,0.005063
691.9027,0.01552,-0.34932,0.12112,-9.78492,-0.110049,-0.002265,0.001732
691.9163,0.01354,-0.28285,0.34102,-9.75184,-0.104986,0.001599,0.001599
691.9298,0.01353,-0.34457,0.13068,-9.80146,-0.109916,0.033175,0.003198
691.9769,0.04706,-0.30421,0.14741,-9.83454,-0.113380,0.000666,0.004930
691.9945,0.01761,-0.36356,0.26453,-9.74948,-0.098858,0.000666,0.003064
692.0109,0.01636,-0.27573,0.08049,-9.78728,-0.107784,-0.001199,0.005596
692.0247,0.01389,-0.39917,0.25019,-9.65023,-0.103787,-0.033308,0.001066
692.0386,0.01387,-0.33270,0.07810,-9.83454,-0.104853,0.003997,0.001732
692.0524,0.01380,-0.36356,0.16893,-9.76602,-0.112580,-0.004263,0.009060
692.0662,0.01383,-0.32795,0.21912,-9.75184,-0.100856,0.006928,0.001599
692.1131,0.04690,-0.37306,0.11156,-9.93142,-0.107917,0.000666,0.005729
692.1302,0.01703,-0.38967,0.21434,-9.67622,-0.104320,0.004263,0.005729
692.1437,0.01356,-0.29947,0.09961,-9.82981,-0.104720,0.004796,0.001865
692.1573,0.01357,-0.37543,0.31951,-9.95978,-0.107518,-0.003331,0.002798
692.1709,0.01359,-0.37543,0.22868,-9.74002,-0.103121,0.008793,0.001599
692.1873,0.01640,-0.27573,0.15458,-9.94323,-0.111781,-0.002398,0.002665
692.2013,0.01396,-0.33745,0.19044,-9.70458,-0.101256,0.006129,-0.000533
692.2486,0.04732,-0.33745,0.10439,-9.82509,-0.103521,0.000799,0.001998
692.2661,0.01753,-0.40154,0.14263,-9.73530,-0.107518,-0.003198,0.003198
692.2797,0.01353,-0.31371,0.11873,-9.71167,-0.108583,-0.000533,0.003997
692.2931,0.01348,-0.33982,0.21195,-9.73766,-0.104453,0.001998,0.005063
692.3066,0.01348,-0.30421,0.13546,-9.94560,-0.106185,0.033308,0.004663
692.3200,0.01341,-0.31134,0.17371,-9.77547,-0.103920,0.000799,0.003997
692.3335,0.01347,-0.30896,0.21434,-9.76602,-0.104986,0.005063,0.003064
692.3803,0.04684,-0.36593,0.13546,-9.92197,-0.106985,0.005729,0.000933
692.4011,0.02073,-0.35169,0.21673,-9.67859,-0.136029,-0.005063,0.000400
692.4151,0.01405,-0.53210,0.14502,-9.87235,-0.108317,0.006928,0.006528
692.4289,0.01381,-0.33033,0.11156,-9.76838,-0.109116,-0.008127,0.003198
692.4427,0.01379,-0.25674,0.16176,-9.77074,-0.100723,0.005995,0.005729
692.4565,0.01376,-0.31134,0.06854,-9.84872,-0.114845,-0.004930,0.002665
692.4703,0.01377,-0.32083,0.18566,-9.69749,-0.104587,0.002132,0.006262
692.5172,0.04698,-0.55109,0.13068,-9.76365,-0.135763,0.001199,0.003331
692.5342,0.01697,-0.36356,0.09005,-9.79910,-0.110315,-0.005729,0.002132
692.5477,0.01354,-0.40392,0.16893,-9.77783,-0.104054,0.004130,0.003064
692.5612,0.01347,-0.33270,0.13307,-9.88416,-0.107384,-0.003864,0.007061
692.5768,0.01562,-0.33745,0.19283,-9.78492,-0.107917,0.002931,0.003464
692.5907,0.01386,-0.29709,0.14263,-9.79437,-0.104187,-0.001732,0.003997
692.6044,0.01375,-0.34932,0.16415,-9.85817,-0.108717,0.002531,0.003198
692.6517,0.04727,-0.38018,0.15937,-9.76129,-0.106452,0.002531,0.003064
692.6693,0.01756,-0.28522,0.17132,-9.71167,-0.105119,0.002531,0.002665
692.6831,0.01386,-0.32558,0.13546,-9.75184,-0.105786,0.002931,0.001599
692.6969,0.01378,-0.29472,0.16415,-9.71876,-0.107384,0.002132,0.003730
692.7107,0.01376,-0.32558,0.07093,-9.83454,-0.107251,0.003997,0.005196
692.7244,0.01377,-0.51786,0.05420,-9.74948,-0.106718,0.004796,0.007727
692.7382,0.01377,-0.31846,0.19522,-9.82509,-0.136429,-0.004263,0.000799
692.7879,0.04972,-0.26148,0.18088,-9.52500,-0.109116,-0.006262,0.007861
692.8058,0.01785,-0.39442,0.14741,-9.91961,-0.104320,0.010259,0.001066
692.8197,0.01390,-0.29472,0.15219,-9.67622,-0.113646,-0.008127,0.006528
692.8336,0.01391,-0.35881,0.25497,-9.80619,-0.101389,0.009859,0.003198
692.8474,0.01384,-0.21401,0.11873,-9.84635,-0.113779,-0.008527,0.003597
692.8612,0.01382,-0.44190,0.20239,-9.60297,-0.103521,0.004397,0.006662
692.8751,0.01384,-0.31846,0.12112,-9.79201,-0.103787,-0.000799,0.001199
692.9242,0.04907,-0.27810,0.14980,-9.74948,-0.108983,-0.000400,0.000933
692.9420,0.01782,-0.42291,0.17610,-9.80146,-0.102721,0.011458,0.001466
692.9559,0.01392,-0.21401,0.14263,-9.80382,-0.108983,-0.006662,0.006795
692.9718,0.01591,-0.32795,0.06854,-9.55572,-0.099657,0.007461,0.002665
692.9853,0.01355,-0.33745,0.16893,-9.80146,-0.109250,-0.004397,0.003864
692.9989,0.01354,-0.34932,0.34102,-9.73293,-0.108983,0.001998,0.002132
693.0124,0.01351,-0.34457,0.12112,-9.79437,-0.107384,0.002132,0.003464
693.0593,0.04689,-0.27810,0.19044,-9.67622,-0.108583,-0.000266,0.000400
693.0763,0.01703,-0.33745,0.15219,-9.83218,-0.106718,0.001066,0.002265
693.0900,0.01367,-0.33507,0.20478,-9.70222,-0.110049,0.033974,0.004397
693.1038,0.01383,-0.31608,0.14980,-9.80146,-0.104853,0.001998,0.000400
693.1176,0.01384,-0.36119,0.16654,-9.78019,-0.109516,0.004930,0.005862
693.1315,0.01381,-0.32083,0.14980,-9.86053,-0.106585,-0.003997,0.007061
693.1477,0.01628,-0.28760,0.13307,-9.51318,-0.135896,0.003597,0.001599
693.1951,0.04740,-0.44190,0.11873,-9.90779,-0.103121,0.012657,0.003864
693.2127,0.01757,-0.37543,0.15937,-9.70694,-0.104453,-0.004530,0.003997
693.2266,0.01387,-0.29472,0.17132,-9.82273,-0.109783,0.003730,0.007194
693.2405,0.01390,-0.35406,0.17610,-9.79201,-0.107251,-0.001732,0.001865
693.2543,0.01384,-0.28285,0.23824,-9.67150,-0.107518,0.004263,0.001865
693.2681,0.01375,-0.33982,0.11156,-9.72585,-0.106851,-0.002398,0.003597
693.2818,0.01377,-0.34694,0.17849,-9.70694,-0.108184,0.003597,0.003597
693.3290,0.04718,-0.38967,0.19522,-9.69985,-0.108583,0.004263,0.004263
693.3462,0.01718,-0.29709,0.06854,-9.80855,-0.107518,-0.001599,0.006662
693.3620,0.01579,-0.32795,0.17610,-9.78019,-0.106319,0.007194,0.005196
693.3755,0.01349,-0.33745,0.14502,-9.73057,-0.104320,-0.001865,0.001599
693.3890,0.01350,-0.34694,0.18088,-9.82981,-0.109516,-0.033841,0.001599
693.4028,0.01383,-0.34694,0.17132,-9.96450,-0.100323,0.003331,0.005063
693.4165,0.01374,-0.30659,0.14980,-9.80382,-0.108317,-0.001998,0.002398
693.4639,0.04733,-0.35169,0.11634,-9.83218,-0.102855,0.002665,0.006129
693.4822,0.01834,-0.32795,0.20717,-9.66677,-0.104587,0.001066,0.004130
693.4962,0.01400,-0.32795,0.13546,-9.82509,-0.069280,-0.002798,0.004130
693.5098,0.01356,-0.35644,0.11634,-9.74711,-0.136029,0.004130,0.001998
693.5232,0.01348,-0.36119,0.14741,-9.86053,-0.107518,0.001732,0.008527
693.5389,0.01569,-0.30659,0.22151,-9.52027,-0.135629,0.003198,0.007461
693.5524,0.01348,-0.34220,0.06854,-9.93378,-0.107118,0.007994,0.001998
693.5993,0.04687,-0.38018,0.20478,-9.68331,-0.107384,-0.002531,0.005729
693.6168,0.01756,-0.30421,0.13546,-9.84163,-0.107384,0.033974,0.004663
693.6307,0.01387,-0.35644,0.12351,-9.81327,-0.105652,-0.033175,0.001998
693.6445,0.01377,-0.26148,0.17371,-9.70694,-0.069147,0.000133,0.002398
693.6582,0.01375,-0.35644,0.14263,-9.84635,-0.106185,-0.001332,0.007727
693.6720,0.01373,-0.34932,0.11873,-9.80619,-0.107784,-0.003198,0.003597
693.6857,0.01377,-0.54635,0.12112,-9.78256,-0.104587,0.004663,0.004263
693.7329,0.04715,-0.31846,0.15219,-9.79437,-0.107917,-0.001199,0.006395
693.7521,0.01923,-0.36119,0.12590,-9.77074,-0.100190,0.007194,0.001599
693.7657,0.01361,-0.34220,0.11156,-9.89125,-0.107384,-0.001066,0.002531
693.7792,0.01348,-0.36356,0.14263,-9.66441,-0.106985,0.001466,0.002265
693.7928,0.01363,-0.33270,0.10678,-9.78256,-0.099391,0.000533,0.000133
693.8068,0.01393,-0.34694,0.15219,-9.78964,-0.111648,-0.003198,0.002531
693.8206,0.01381,-0.32558,0.19283,-9.77547,-0.104720,0.004263,0.002931
693.8680,0.04744,-0.51786,0.21673,-9.68095,-0.109250,-0.032775,0.004663
693.8859,0.01790,-0.29947,0.11156,-9.96214,-0.109116,-0.004397,0.005462
693.9021,0.01620,-0.28997,0.16176,-9.52500,-0.134697,0.000533,0.001732
693.9158,0.01368,-0.36119,0.07810,-9.92669,-0.069014,0.003730,0.001199
693.9316,0.01584,-0.29472,0.22151,-9.61243,-0.109916,-0.008127,0.004397
693.9452,0.01350,-0.37068,0.16893,-9.85581,-0.095926,0.012257,0.003997
693.9588,0.01364,-0.21163,0.10200,-9.83690,-0.114446,-0.011991,0.000799
694.0058,0.04697,-0.25674,0.21912,-9.61243,-0.106851,0.005596,0.001466
694.0242,0.01844,-0.35169,0.11873,-9.86526,-0.108317,0.000266,0.006395
694.0384,0.01418,-0.29234,0.16415,-9.69276,-0.107251,-0.000400,0.004663
694.0522,0.01387,-0.34932,0.14741,-9.78964,-0.103920,0.004397,0.005196
694.0661,0.01389,-0.28048,0.09961,-9.95032,-0.113646,0.033041,0.002931
694.0799,0.01378,-0.27573,0.23107,-9.74239,-0.108450,0.000266,0.003997
694.0938,0.01384,-0.32083,0.10200,-9.79201,-0.099790,0.033841,0.002931
694.1432,0.04940,-0.34220,0.15219,-9.78492,-0.107118,0.001865,0.003997
694.1602,0.01702,-0.32795,0.20239,-9.83454,-0.104720,0.002531,0.003198
694.1738,0.01361,-0.32795,0.18327,-9.73057,-0.108850,-0.003730,0.002798
694.1873,0.01353,-0.30421,0.11873,-9.77310,-0.108583,0.005995,0.001466
694.2009,0.01361,-0.27098,0.18327,-9.76129,-0.108850,0.000666,0.003864
694.2148,0.01386,-0.31134,0.19044,-9.75420,-0.101789,0.003198,0.005329
694.2286,0.01377,-0.33982,0.17849,-9.75656,-0.110449,-0.001066,0.006795
694.2758,0.04729,-0.25674,0.08049,-9.88889,-0.099923,0.006395,0.003864
694.2934,0.01756,-0.31846,0.20956,-9.81091,-0.110049,-0.011058,0.007328
694.3072,0.01385,-0.39205,0.29561,-9.69985,-0.100323,0.017587,0.002931
694.3236,0.01637,-0.23062,0.16893,-9.79673,-0.115911,-0.017320,0.006928
694.3374,0.01383,-0.38255,0.24780,-9.70458,-0.096459,0.011991,0.002798
694.3512,0.01379,-0.27810,0.12829,-9.90070,-0.112181,-0.007328,0.004796
694.3650,0.01374,-0.47988,0.21912,-9.69040,-0.109116,0.006129,0.003198
694.4123,0.04732,-0.36356,0.19283,-9.77547,-0.107917,0.002132,0.003464
694.4300,0.01773,-0.28048,0.15219,-9.79437,-0.108850,-0.002531,0.004663
694.4439,0.01384,-0.35644,0.17849,-9.73057,-0.104453,-0.031975,0.002665
694.4577,0.01379,-0.25911,0.16415,-9.78964,-0.105652,-0.001865,-0.000000
694.4714,0.01376,-0.35169,0.12829,-9.92197,-0.109783,-0.001732,0.004130
694.4852,0.01375,-0.34932,0.20000,-9.78728,-0.102188,0.001066,0.003730
694.5014,0.01622,-0.29947,0.09722,-9.89125,-0.112580,-0.001066,0.005196
694.5485,0.04715,-0.40154,0.12112,-9.75420,-0.104587,0.002665,0.002398
694.5663,0.01779,-0.30421,0.15697,-9.73766,-0.105919,0.001599,0.006528
694.5800,0.01367,-0.36593,0.18327,-9.82273,-0.106452,0.000400,0.005196
694.5935,0.01352,-0.29472,0.17371,-9.74239,-0.105253,-0.002398,0.033841
694.6070,0.01353,-0.26623,0.14024,-9.77783,-0.105786,0.001865,0.002798
694.6208,0.01378,-0.26623,0.14263,-9.80382,-0.110315,-0.001865,0.004796
694.6347,0.01383,-0.29472,0.15937,-9.65496,-0.105919,0.005063,0.004796
694.6820,0.04731,-0.34932,0.17610,-9.80146,-0.105652,0.000266,0.007194
694.6995,0.01749,-0.33270,0.18805,-9.70694,-0.107784,-0.033708,0.002265
694.7159,0.01646,-0.30659,0.15219,-9.85108,-0.106585,-0.001199,0.001066
694.7299,0.01394,-0.34694,0.16654,-9.77310,-0.105652,0.000933,-0.033841
694.7437,0.01380,-0.36356,0.10917,-9.77547,-0.108717,-0.000799,0.004263
694.7575,0.01382,-0.38018,0.16893,-9.66441,-0.108583,0.002265,0.002665
694.7713,0.01380,-0.36831,0.13785,-9.71403,-0.106985,-0.002531,0.005596
694.8188,0.04753,-0.38492,0.22629,-9.79437,-0.104187,0.003597,0.005196
694.8364,0.01761,-0.34220,0.14263,-9.79437,-0.105919,-0.000933,0.003997
694.8504,0.01399,-0.35406,0.17610,-9.73530,-0.106185,0.033441,0.005596
694.8643,0.01390,-0.35881,0.12112,-9.74948,-0.108583,0.002798,0.001732
694.8781,0.01380,-0.30896,0.22151,-9.73293,-0.107251,0.001199,0.006528
694.8944,0.01627,-0.31371,0.19522,-9.96214,-0.107384,-0.001066,0.005329
694.9103,0.01591,-0.34932,0.13546,-9.69513,-0.104054,-0.000933,0.005329
694.9574,0.04714,-0.44665,0.12829,-9.81800,-0.100590,0.012124,0.004263
694.9745,0.01706,-0.33270,0.33624,-9.81327,-0.110982,-0.006928,0.005995
694.9881,0.01356,-0.33033,0.15219,-9.71639,-0.098325,0.008260,0.000666
695.0016,0.01352,-0.29947,0.11634,-10.07792,-0.113113,-0.003198,0.002132
695.0155,0.01396,-0.39205,0.21673,-9.69040,-0.105253,0.005729,0.004930
695.0297,0.01419,-0.33270,0.13785,-9.87707,-0.107251,-0.033308,0.002665
695.0437,0.01394,-0.34694,0.05181,-9.94087,-0.108717,0.003331,0.002931
695.0912,0.04748,-0.38255,0.19283,-9.79201,-0.106985,0.004663,0.005462
695.1121,0.02090,-0.31134,0.09483,-9.82509,-0.107917,-0.000666,0.006262
695.1263,0.01428,-0.31371,0.15219,-9.71639,-0.105253,0.003464,0.000533
695.1403,0.01392,-0.36119,0.10917,-9.80619,-0.108717,0.000266,0.007861
695.1542,0.01391,-0.30896,0.21912,-9.77074,-0.108450,-0.002931,0.004397
695.1680,0.01386,-0.38492,0.09244,-9.78964,-0.103787,0.002265,0.006528
695.1819,0.01386,-0.31134,0.12590,-9.89598,-0.108051,-0.002931,0.007061
695.2294,0.04750,-0.38255,0.15697,-9.80146,-0.105652,0.033574,0.007461
695.2470,0.01763,-0.36593,0.23107,-9.80855,-0.108184,0.002398,0.002798
695.2609,0.01386,-0.32083,0.10678,-9.95978,-0.106052,-0.033708,0.003864
695.2747,0.01382,-0.39442,0.16893,-9.80146,-0.104187,0.000266,0.002931
695.2910,0.01625,-0.33270,0.19522,-9.78256,-0.105519,0.001199,0.004930
695.3048,0.01381,-0.31371,0.15697,-9.77074,-0.108850,0.001865,0.007461
695.3186,0.01382,-0.36593,0.08288,-9.75420,-0.109250,0.034107,0.001466
695.3655,0.04693,-0.32320,0.12351,-9.74948,-0.107384,-0.000533,0.006528
695.3825,0.01702,-0.32558,0.18327,-9.74948,-0.105119,0.002931,0.002398
695.3961,0.01355,-0.30659,0.14741,-9.74239,-0.109649,-0.001066,0.002531
695.4096,0.01349,-0.37068,0.10200,-9.80382,-0.108184,-0.001332,0.003464
695.4233,0.01368,-0.32795,0.21673,-9.74002,-0.106052,0.001599,0.005196
695.4372,0.01392,-0.42765,0.14502,-9.82273,-0.106185,0.004663,0.003064
695.4510,0.01381,-0.32795,0.15697,-9.79910,-0.109250,-0.001998,0.002665
695.5008,0.04977,-0.31608,0.11873,-9.71639,-0.100456,0.005729,0.004663
695.5183,0.01759,-0.33270,0.19522,-9.80619,-0.109916,0.002798,0.004530
695.5322,0.01390,-0.36119,0.18327,-9.70694,-0.103920,0.003331,0.002398
695.5461,0.01382,-0.33745,0.11156,-9.89598,-0.108317,0.004796,0.003064
695.5598,0.01377,-0.31134,0.32668,-9.79201,-0.108717,-0.001199,0.003997
695.5736,0.01380,-0.52261,0.15937,-9.80855,-0.104453,0.007194,0.005063
695.5874,0.01378,-0.28048,0.16893,-9.80146,-0.111381,-0.005596,0.004930
695.6348,0.04737,-0.32558,0.31712,-9.73057,-0.108317,0.002398,0.005329
695.6532,0.01846,-0.34220,0.11156,-9.88416,-0.108450,-0.033974,0.003331
695.6673,0.01407,-0.27573,0.14741,-9.75656,-0.106851,-0.001865,0.000799
695.6837,0.01634,-0.31846,0.13785,-9.86290,-0.106052,0.003997,0.000400
695.6975,0.01387,-0.29472,0.17371,-9.79201,-0.105386,-0.002931,0.004796
695.7114,0.01383,-0.35644,0.16893,-9.86998,-0.107518,0.002931,0.004130
695.7252,0.01388,-0.34457,0.15697,-9.75184,-0.108051,-0.003198,0.003997
695.7722,0.04697,-0.30421,0.11156,-9.68331,-0.108051,0.000133,0.005329
695.7895,0.01726,-0.30184,0.14024,-9.79437,-0.105253,0.001466,0.005729
695.8031,0.01366,-0.30896,0.14024,-9.76129,-0.106718,-0.001865,0.002531
695.8167,0.01353,-0.50599,0.13785,-9.80619,-0.107518,0.001732,0.001998
695.8302,0.01351,-0.27810,0.19283,-9.80855,-0.107384,-0.001599,0.006662
695.8440,0.01382,-0.29234,0.13785,-9.95505,-0.106585,0.033841,0.005329
695.8603,0.01632,-0.28760,0.15219,-9.84872,-0.103920,-0.001066,0.003464
695.9098,0.04952,-0.27098,0.17371,-9.71639,-0.107518,0.033841,0.004130
695.9276,0.01772,-0.35169,0.13068,-9.78256,-0.107784,0.004130,0.002931
695.9412,0.01368,-0.34220,0.16176,-9.80382,-0.107518,-0.003331,0.004130
695.9548,0.01357,-0.28285,0.13307,-9.72821,-0.106452,0.002931,0.004130
695.9683,0.01350,-0.34457,0.13785,-9.81800,-0.104720,-0.001732,0.002132
695.9818,0.01351,-0.30896,0.14024,-9.79437,-0.104453,0.004397,0.004530
695.9953,0.01348,-0.35644,0.16654,-9.75184,-0.107784,0.000933,0.004130
696.0424,0.04714,-0.27098,0.14263,-9.76129,-0.105919,0.000400,0.001466
696.0601,0.01761,-0.38018,0.13785,-9.92197,-0.104054,0.002931,0.003331
696.0764,0.01637,-0.36593,0.11634,-9.76602,-0.104986,-0.001732,0.005329
696.0904,0.01392,-0.34694,0.17132,-9.76129,-0.109250,0.003064,0.003064
696.1042,0.01387,-0.32083,0.15697,-9.83454,-0.105519,-0.033841,0.003331
696.1181,0.01386,-0.31134,0.16415,-9.94796,-0.101256,0.002531,0.004930
696.1319,0.01381,-0.33033,0.19283,-9.76602,-0.107118,-0.001466,0.004530
696.1789,0.04695,-0.34932,0.13068,-9.76838,-0.106585,-0.033441,0.004530
696.1966,0.01776,-0.36119,0.20239,-9.76129,-0.111248,-0.001865,0.002931
696.2105,0.01389,-0.35406,0.07571,-9.75656,-0.107251,0.001199,0.003064
696.2241,0.01355,-0.29709,0.15219,-9.94796,-0.106319,0.001199,0.001732
696.2378,0.01371,-0.33745,0.19283,-9.77310,-0.108184,-0.001199,0.003997
696.2541,0.01636,-0.29234,0.15219,-9.74948,-0.107518,-0.000799,0.002398
696.2679,0.01381,-0.33745,0.14980,-9.67386,-0.106851,-0.033974,0.003730
696.3153,0.04736,-0.30421,0.16176,-9.77310,-0.105119,0.003864,0.003864
696.3329,0.01764,-0.34220,0.15697,-9.84399,-0.105253,-0.033574,0.004263
696.3465,0.01361,-0.34220,0.14980,-9.70931,-0.107384,0.001599,0.001599
696.3600,0.01351,-0.35881,0.12351,-9.91252,-0.105519,0.004263,0.000666
696.3735,0.01348,-0.35644,0.16654,-9.73766,-0.108583,-0.002931,0.005196
696.3870,0.01348,-0.31134,0.16176,-9.80382,-0.105519,0.002798,0.004930
696.4004,0.01344,-0.35169,0.11156,-9.80146,-0.108184,-0.002665,0.002132
696.4473,0.04687,-0.28522,0.16176,-9.91961,-0.107917,0.002265,0.004530
696.4673,0.01999,-0.38730,0.18566,-9.80855,-0.103787,0.003730,0.002798
696.4812,0.01390,-0.28522,0.13546,-9.66441,-0.107518,-0.000133,0.003331
696.4950,0.01384,-0.31134,0.15697,-9.74239,-0.104587,0.004930,0.004397
696.5088,0.01377,-0.33270,0.12829,-9.76602,-0.106052,0.000533,0.002798
696.5226,0.01379,-0.33033,0.08766,-9.79437,-0.106985,0.003198,0.004796
696.5364,0.01376,-0.30184,0.14980,-9.77547,-0.107784,0.000533,0.002665
696.5832,0.04689,-0.35644,0.14741,-9.75893,-0.104187,-0.000799,0.000933
696.6002,0.01694,-0.35406,0.10678,-9.66914,-0.104320,0.002265,0.001332
696.6138,0.01357,-0.31371,0.14980,-9.78492,-0.103254,-0.001466,0.000400
696.6272,0.01348,-0.34457,0.16654,-9.74239,-0.105119,-0.003331,0.004397
696.6429,0.01568,-0.33270,0.14502,-9.74475,-0.107518,0.001066,0.006262
696.6568,0.01385,-0.39442,0.14024,-9.87707,-0.107917,-0.002132,0.004796
696.6706,0.01386,-0.33270,0.14741,-9.75656,-0.108850,0.004397,0.003064
696.7180,0.04741,-0.30659,0.12112,-9.78492,-0.106585,0.001865,0.000933
696.7364,0.01836,-0.32320,0.13068,-9.77074,-0.106452,-0.000000,0.006928
696.7505,0.01412,-0.34694,0.20239,-9.80146,-0.104587,0.001466,0.003864
696.7644,0.01389,-0.41578,0.13068,-9.80619,-0.104320,-0.001865,0.005729
696.7782,0.01384,-0.35644,0.14502,-9.69276,-0.104986,-0.001332,0.007461
696.7922,0.01399,-0.40866,0.17849,-9.66441,-0.106851,0.001066,0.000933
696.8062,0.01393,-0.27098,0.15697,-9.67859,-0.105786,0.002665,0.005729
696.8560,0.04986,-0.32558,0.17849,-9.72821,-0.109250,0.000133,0.004796
696.8737,0.01767,-0.34932,0.19283,-9.83690,-0.103920,0.004263,0.005063
696.8876,0.01393,-0.34457,0.14741,-9.82745,-0.105386,-0.001199,0.001599
696.9036,0.01597,-0.31134,0.13546,-9.80619,-0.105386,0.001998,0.004130
696.9176,0.01397,-0.31846,0.18088,-9.89125,-0.108850,0.002665,0.003198
696.9315,0.01390,-0.33745,0.19761,-9.76838,-0.107518,0.005196,0.003597
696.9787,0.04729,-0.36593,0.18566,-9.73057,-0.104320,0.001732,0.000933
696.9958,0.01704,-0.27573,0.12829,-9.78964,-0.106052,-0.003064,0.003864
697.0094,0.01363,-0.32795,0.11634,-9.84635,-0.105786,0.001732,0.002132
697.0230,0.01357,-0.39679,0.13307,-9.82273,-0.107384,-0.000933,0.001998
697.0387,0.01573,-0.36356,0.13785,-9.74711,-0.107251,0.002132,0.002798
697.0525,0.01374,-0.35169,0.11873,-9.75420,-0.108583,-0.002132,0.004397
697.0665,0.01404,-0.33270,0.18088,-9.81564,-0.104054,0.001732,0.001199
697.1140,0.04751,-0.31371,0.11395,-9.73293,-0.110449,-0.001199,0.004130
697.1316,0.01758,-0.34457,0.09961,-9.70931,-0.105652,0.034107,0.005729
697.1455,0.01392,-0.38492,0.16893,-9.77783,-0.106452,0.002265,0.005196
697.1594,0.01389,-0.31608,0.13068,-9.92197,-0.104453,0.000266,0.003464
697.1733,0.01389,-0.33507,0.14741,-9.66677,-0.108184,0.000799,0.001066
697.1871,0.01385,-0.30184,0.15458,-9.78964,-0.105386,-0.004796,0.003064
697.2010,0.01384,-0.36119,0.11634,-9.78964,-0.102055,0.003997,0.004530
697.2507,0.04976,-0.35644,0.12829,-9.71403,-0.106319,0.033574,0.002531
697.2692,0.01845,-0.34457,0.17371,-9.77074,-0.105786,0.034107,0.004530
697.2833,0.01414,-0.34457,0.12112,-9.78492,-0.104587,0.001332,0.001599
697.2972,0.01389,-0.30184,0.15458,-9.72821,-0.106718,-0.000933,0.003198
697.3111,0.01385,-0.33982,0.15219,-9.76365,-0.102988,0.001332,0.005196
697.3249,0.01379,-0.38730,0.17371,-9.82509,-0.107784,0.000666,0.002665
697.3387,0.01381,-0.37068,0.15458,-9.80855,-0.106185,0.001466,0.004130
697.3859,0.04721,-0.34457,0.08527,-9.79201,-0.105519,0.000400,0.004930
697.4029,0.01704,-0.29947,0.16415,-9.77783,-0.105786,0.003597,0.002665
697.4165,0.01357,-0.29472,0.15219,-9.84872,-0.107251,-0.002531,0.003597
697.4322,0.01569,-0.37306,0.12829,-9.75893,-0.105386,0.001732,0.003464
697.4457,0.01355,-0.38018,0.14263,-9.91961,-0.107651,-0.001865,0.002531
697.4596,0.01386,-0.36593,0.14502,-9.73057,-0.109516,0.000533,0.002665
697.4734,0.01386,-0.32795,0.16893,-9.71167,-0.101922,-0.033574,0.003597
697.5208,0.04737,-0.25199,0.15697,-9.78728,-0.108317,0.033841,0.005596
697.5384,0.01759,-0.34220,0.18805,-9.81091,-0.106052,0.000799,0.001732
697.5523,0.01387,-0.33982,0.33624,-9.81564,-0.103920,0.003464,0.003730
697.5661,0.01385,-0.33270,0.21673,-9.76365,-0.106985,-0.000666,0.003331
697.5799,0.01377,-0.34694,0.11634,-9.78964,-0.107118,0.002798,0.006395
697.5937,0.01381,-0.25436,0.16893,-9.79201,-0.105919,-0.000000,0.005063
697.6102,0.01648,-0.30184,0.19283,-9.78728,-0.105786,-0.033441,0.003198
697.6575,0.04738,-0.33507,0.14980,-9.77547,-0.105253,0.003331,0.004663
697.6752,0.01762,-0.33745,0.14263,-9.83690,-0.108450,-0.001998,0.005063
697.6890,0.01386,-0.32320,0.18805,-9.77783,-0.109516,0.001466,0.004263
697.7030,0.01393,-0.28997,0.17371,-9.79437,-0.106985,-0.001732,0.002665
697.7168,0.01383,-0.30421,0.22868,-9.78728,-0.108583,0.001732,0.003864
697.7306,0.01382,-0.32083,0.19044,-9.78256,-0.107917,0.033175,0.001199
697.7444,0.01379,-0.28048,0.15697,-9.78492,-0.108583,0.002132,0.003864
697.7918,0.04737,-0.34932,0.11395,-9.94560,-0.103787,0.033175,0.004663
697.8097,0.01788,-0.27573,0.18088,-9.68804,-0.105919,-0.000133,0.005196
697.8257,0.01607,-0.34457,0.18327,-9.74475,-0.109649,0.004263,0.003730
697.8394,0.01363,-0.39917,0.14024,-9.87707,-0.105519,-0.000533,0.006795
697.8529,0.01354,-0.30184,0.17371,-9.75893,-0.108850,0.001865,0.004130
697.8668,0.01395,-0.30896,0.12112,-9.75893,-0.106319,0.000533,0.003730
697.8807,0.01382,-0.32083,0.19044,-9.79673,-0.107384,0.001332,0.001732
697.9302,0.04958,-0.37306,0.13068,-9.76365,-0.106851,0.003597,0.003464
697.9479,0.01768,-0.37068,0.21434,-9.75656,-0.106319,0.000133,0.002665
697.9618,0.01392,-0.36119,0.12351,-9.74239,-0.110582,0.002531,0.002931
697.9754,0.01358,-0.32795,0.16654,-9.77547,-0.104453,-0.000933,0.003464
697.9889,0.01352,-0.32320,0.16415,-9.78964,-0.108317,0.005995,0.002531
698.0046,0.01571,-0.28285,0.11395,-9.93615,-0.106851,-0.001332,0.006395
698.0182,0.01357,-0.31608,0.16415,-9.69276,-0.104054,0.000933,0.002665
698.0652,0.04694,-0.32795,0.14024,-9.80855,-0.105253,0.001998,0.004663
698.0829,0.01770,-0.28522,0.09483,-9.74002,-0.104720,0.001599,0.002398
698.0968,0.01391,-0.33982,0.08288,-9.75184,-0.103521,-0.000133,0.001865
698.1106,0.01385,-0.35644,0.17132,-9.83454,-0.109516,-0.003064,0.002265
698.1245,0.01383,-0.33270,0.16415,-9.82273,-0.108983,0.002398,0.003864
698.1383,0.01385,-0.40154,0.17610,-9.74002,-0.105786,-0.000400,0.007328
698.1521,0.01381,-0.36356,0.20000,-9.74002,-0.107251,0.004130,0.002665
698.1993,0.04722,-0.29472,0.16654,-9.75656,-0.104587,0.000266,0.002132
698.2185,0.01920,-0.32795,0.16654,-9.72585,-0.104986,-0.003064,0.003864
698.2321,0.01356,-0.33033,0.11634,-9.75656,-0.108850,-0.000133,0.006795
698.2456,0.01350,-0.34457,0.33385,-9.74948,-0.106718,-0.003064,0.005063
698.2591,0.01349,-0.29709,0.15219,-9.77310,-0.106585,0.003864,0.003597
698.2729,0.01381,-0.29709,0.17849,-9.86053,-0.104453,-0.002265,0.003064
698.2868,0.01386,-0.36356,0.17371,-9.78256,-0.105386,0.001199,0.004397
698.3341,0.04733,-0.34694,0.19761,-9.82509,-0.104453,0.003064,0.003464
698.3524,0.01830,-0.31371,0.18088,-9.75893,-0.108184,-0.002665,0.006395
698.3666,0.01417,-0.35169,0.14024,-9.84635,-0.136296,-0.033041,0.004130
698.3804,0.01386,-0.31608,0.19283,-9.81564,-0.070080,-0.033974,0.001865
698.3967,0.01631,-0.33745,0.12829,-9.78728,-0.107518,0.001332,0.004130
698.4106,0.01386,-0.28760,0.13068,-9.82273,-0.107518,0.003064,0.005995
698.4244,0.01380,-0.29234,0.16654,-9.74948,-0.102988,0.001066,0.001998
698.4718,0.04737,-0.36119,0.15697,-9.76602,-0.104986,0.001066,0.003464
698.4894,0.01760,-0.35169,0.16415,-9.71167,-0.108717,0.001199,0.003331
698.5033,0.01394,-0.33745,0.16654,-9.81327,-0.104453,0.004663,0.005462
698.5171,0.01384,-0.34220,0.15458,-9.81800,-0.108051,-0.000533,0.002531
698.5310,0.01382,-0.34220,0.16893,-9.80146,-0.106185,0.002398,0.003597
698.5447,0.01378,-0.31608,0.15458,-9.79673,-0.106052,-0.001066,0.003198
698.5586,0.01380,-0.28048,0.16893,-9.64314,-0.108317,0.001732,0.004930
698.6076,0.04908,-0.33745,0.18088,-9.75420,-0.108051,-0.000533,0.003331
698.6246,0.01702,-0.35881,0.13785,-9.75893,-0.105386,0.002265,0.006795
698.6382,0.01356,-0.29472,0.16415,-9.73057,-0.108184,0.002798,0.001865
698.6517,0.01347,-0.34220,0.13068,-9.83454,-0.101789,0.001998,0.000799
698.6652,0.01348,-0.32320,0.16654,-9.77074,-0.106052,0.000933,0.002398
698.6790,0.01388,-0.32320,0.12112,-9.69749,-0.102855,-0.000000,0.002931
698.6928,0.01377,-0.34457,0.16415,-9.69276,-0.106319,0.003064,0.005862
698.7402,0.04739,-0.36831,0.17132,-9.91015,-0.105919,0.003464,0.004530
698.7579,0.01765,-0.28760,0.17132,-9.67150,-0.103387,-0.002931,0.006129
698.7718,0.01395,-0.34694,0.15219,-9.69040,-0.068481,0.003464,0.003198
698.7884,0.01655,-0.39679,0.16893,-9.73766,-0.105919,-0.001466,0.008660
698.8023,0.01396,-0.39442,0.14263,-9.78964,-0.068481,0.003997,0.001732
698.8162,0.01385,-0.33033,0.14024,-9.81800,-0.108184,-0.004130,0.004663
698.8300,0.01385,-0.35881,0.12829,-9.75656,-0.106052,0.000400,0.002665
698.8774,0.04742,-0.34220,0.11395,-9.69276,-0.106851,0.003464,0.004796
698.8959,0.01842,-0.36593,0.11156,-9.70931,-0.104986,-0.001332,0.001732
698.9120,0.01619,-0.37543,0.08527,-9.78256,-0.111115,0.001732,0.005995
698.9260,0.01398,-0.31134,0.14502,-9.95269,-0.103387,-0.003064,0.002265
698.9399,0.01386,-0.28522,0.14263,-9.79910,-0.107784,0.002132,0.003464
698.9538,0.01389,-0.29234,0.25975,-9.71403,-0.107518,-0.001998,0.003331
698.9701,0.01632,-0.30184,0.07093,-9.82745,-0.106319,0.000266,0.006129
699.0172,0.04709,-0.30659,0.11395,-9.80855,-0.104453,0.003064,0.003464
699.0343,0.01708,-0.32083,0.18327,-9.78019,-0.103920,0.002132,0.001199
699.0478,0.01358,-0.16890,0.30039,-9.95032,-0.109250,-0.004930,0.007328
699.0614,0.01352,-0.35644,0.14024,-9.63842,-0.104054,-0.001599,0.004263
699.0749,0.01352,-0.34932,0.12351,-9.86290,-0.068614,-0.000799,0.003597
699.0888,0.01389,-0.28285,0.19522,-9.79673,-0.111914,-0.000933,0.006129
699.1026,0.01385,-0.42053,0.19283,-9.76602,-0.103387,0.007994,0.033974
699.1500,0.04742,-0.24012,0.15219,-9.68568,-0.114046,-0.005862,0.004530
699.1676,0.01756,-0.34457,0.21673,-9.70222,-0.108051,0.007861,0.001466
699.1840,0.01644,-0.32083,0.18088,-9.86762,-0.107651,0.000400,0.006528
699.1980,0.01391,-0.27573,0.17371,-9.66205,-0.104587,-0.003464,0.004930
699.2118,0.01381,-0.34932,0.17610,-9.76602,-0.103920,0.002931,0.002398
699.2256,0.01379,-0.32558,0.10678,-9.84635,-0.110315,0.001332,0.004930
699.2393,0.01378,-0.35406,0.19283,-9.78019,-0.106851,-0.032375,0.006795
699.2867,0.04732,-0.31608,0.20239,-9.76602,-0.106985,0.032775,0.005329
699.3043,0.01763,-0.33745,0.15219,-9.74475,-0.108184,0.001599,0.002798
699.3182,0.01394,-0.35644,0.12829,-9.77547,-0.101389,0.001599,0.002265
699.3320,0.01380,-0.36593,0.19522,-9.75420,-0.107784,-0.003997,0.002398
699.3458,0.01380,-0.32083,0.15458,-9.76365,-0.105119,0.002265,0.004130
699.3622,0.01634,-0.37543,0.06137,-9.73057,-0.107251,0.001066,0.002132
699.3760,0.01382,-0.27098,0.14980,-9.82509,-0.105519,0.033841,0.002531
699.4230,0.04704,-0.36831,0.26931,-9.75184,-0.109649,-0.000666,0.002265
699.4407,0.01765,-0.35644,0.14741,-9.73766,-0.104453,0.033708,0.003198
699.4545,0.01382,-0.30421,0.13785,-9.75893,-0.108450,-0.002665,0.001599
699.4680,0.01355,-0.32320,0.17849,-9.81564,-0.103920,0.001732,0.004663
699.4816,0.01357,-0.28997,0.15219,-9.83454,-0.103920,-0.033708,0.004397
699.4955,0.01388,-0.33745,0.10200,-9.91488,-0.107384,-0.000666,0.003864
699.5093,0.01382,-0.35881,0.07810,-9.70931,-0.104587,0.001865,0.006795
699.5567,0.04736,-0.28997,0.16415,-9.87235,-0.109649,-0.000400,0.001599
699.5766,0.01995,-0.32795,0.24063,-9.67622,-0.102588,0.001466,0.003730
699.5905,0.01391,-0.36119,0.07093,-9.86053,-0.110049,0.033041,0.004530
699.6043,0.01378,-0.31371,0.16176,-9.53681,-0.108983,-0.008660,0.003464
699.6181,0.01378,-0.38492,0.13307,-9.84872,-0.097259,0.013190,0.001865
699.6319,0.01375,-0.32320,0.05181,-9.83454,-0.113779,-0.010658,0.006928
699.6456,0.01378,-0.40154,0.12351,-9.72112,-0.102855,0.008926,-0.002265
699.6929,0.04730,-0.29947,0.11873,-9.78492,-0.102855,-0.000666,0.003198
699.7105,0.01755,-0.36119,0.20000,-9.55808,-0.110049,-0.001865,-0.033574
699.7244,0.01393,-0.37543,0.14502,-9.76838,-0.103254,0.003997,0.001732
699.7383,0.01387,-0.31134,0.15697,-9.81564,-0.107518,0.000533,0.005462
699.7546,0.01635,-0.32558,0.17371,-9.71876,-0.101256,0.004796,0.004130
699.7685,0.01385,-0.33033,0.11634,-9.83454,-0.104187,0.033841,0.001732
699.7826,0.01406,-0.36593,0.16654,-9.72112,-0.109116,0.001599,0.003464
699.8299,0.04730,-0.38492,0.13546,-9.72348,-0.102455,0.004263,0.003198
699.8470,0.01710,-0.31608,0.17610,-9.72585,-0.108184,-0.003997,0.001998
699.8606,0.01359,-0.31846,0.13068,-9.76365,-0.109916,0.003464,0.003597
699.8741,0.01357,-0.33982,0.18566,-9.80146,-0.108051,-0.000933,0.006928
699.8876,0.01353,-0.33270,0.16654,-9.76129,-0.105652,0.003464,0.003464
699.9036,0.01596,-0.33507,0.16176,-9.81327,-0.103654,-0.003997,0.004663
699.9176,0.01397,-0.28048,0.10917,-9.95505,-0.104986,0.000266,0.004130
699.9675,0.04990,-0.32795,0.13307,-9.79673,-0.102188,0.006662,0.004930
699.9859,0.01846,-0.27098,0.12112,-9.79910,-0.111781,0.000400,0.004530
699.9998,0.01384,-0.29947,0.28126,-9.67386,-0.101389,0.000933,0.004930
700.0134,0.01361,-0.41578,0.06615,-10.04957,-0.106985,0.005329,0.003997
700.0270,0.01358,-0.37780,0.23824,-9.62188,-0.108051,-0.005729,0.006262
700.0405,0.01353,-0.43240,0.14502,-9.71167,-0.102322,0.014789,0.003997
700.0540,0.01354,-0.21401,0.14741,-9.77547,-0.112447,-0.011458,0.001865
700.1011,0.04711,-0.32795,0.30995,-9.70694,-0.105519,0.004397,0.003730
700.1188,0.01766,-0.39917,0.17610,-9.87707,-0.107118,0.000933,0.005596
700.1327,0.01391,-0.29234,0.17610,-9.83218,-0.105786,0.001998,0.001732
700.1490,0.01633,-0.36119,0.12112,-9.85344,-0.105253,0.006662,0.005729
700.1629,0.01387,-0.24249,0.14502,-9.81327,-0.107118,-0.007727,0.005329
700.1767,0.01383,-0.39442,0.14980,-9.69276,-0.106851,0.005596,0.003464
700.1906,0.01386,-0.29234,0.18805,-9.91488,-0.104853,-0.003198,0.002132
700.2376,0.04701,-0.36356,0.16893,-9.76365,-0.110982,-0.001199,0.005729
700.2546,0.01701,-0.36593,0.19522,-9.80382,-0.107251,0.004663,0.003730
700.2681,0.01353,-0.36831,0.16654,-9.74948,-0.108317,-0.004796,0.004796
700.2817,0.01352,-0.38967,0.14263,-9.81091,-0.102988,-0.000400,0.004397
700.2951,0.01348,-0.31846,0.15219,-9.78492,-0.107384,-0.001732,0.002132
700.3090,0.01381,-0.36119,0.13546,-9.81091,-0.106851,0.001066,0.003064
700.3252,0.01625,-0.28997,0.13307,-9.78964,-0.107518,-0.003064,0.003864
700.3725,0.04733,-0.34457,0.11634,-9.81327,-0.106052,0.000799,0.004530
700.3902,0.01762,-0.37306,0.18566,-9.75893,-0.107384,-0.033175,0.002531
700.4040,0.01387,-0.28760,0.15219,-9.70931,-0.103521,0.006662,0.003198
700.4179,0.01383,-0.26861,0.17371,-9.89125,-0.111515,-0.005995,0.007727
700.4317,0.01382,-0.34220,0.14980,-9.59825,-0.109116,0.000266,0.000533
700.4455,0.01381,-0.36356,0.16415,-9.93142,-0.101789,-0.002265,0.007461
700.4593,0.01378,-0.27335,0.15458,-9.78256,-0.113779,0.002398,0.010392
700.5066,0.04734,-0.38492,0.18088,-9.66677,-0.096459,0.015855,-0.002265
700.5249,0.01833,-0.27098,0.05898,-9.89361,-0.110049,-0.007461,0.005462
700.5416,0.01663,-0.32558,0.27409,-9.75420,-0.105519,0.002798,0.002931
700.5555,0.01394,-0.38967,0.12112,-9.84872,-0.106452,0.001332,0.004663
700.5694,0.01387,-0.29472,0.16893,-9.72821,-0.106718,-0.004263,0.004663
700.5832,0.01382,-0.31371,0.18088,-9.79201,-0.101789,0.004530,0.002665
700.5970,0.01378,-0.30421,0.06376,-9.81800,-0.107784,-0.001199,0.006129
700.6440,0.04700,-0.35644,0.18566,-9.77310,-0.113913,0.001332,0.004530
700.6610,0.01701,-0.31134,0.19761,-9.82509,-0.105119,-0.033841,0.002665
700.6745,0.01355,-0.34220,0.13068,-9.72348,-0.107251,-0.003331,0.004263
700.6881,0.01351,-0.31608,0.19044,-9.73293,-0.103521,0.000266,0.006262
700.7015,0.01348,-0.31371,0.08049,-9.93378,-0.105652,0.001066,0.003864
700.7179,0.01638,-0.33745,0.09961,-9.75893,-0.108850,0.003730,0.003064
700.7318,0.01384,-0.27810,0.18805,-9.74475,-0.104320,-0.000533,0.003464
700.7791,0.04738,-0.38967,0.09722,-9.76838,-0.102855,0.032775,0.002531
700.7969,0.01777,-0.38967,0.18566,-9.74948,-0.103654,-0.000000,0.004130
700.8109,0.01399,-0.36119,0.16654,-9.78964,-0.106052,0.001865,0.002798
700.8248,0.01385,-0.34694,0.15697,-9.73530,-0.101789,0.001732,0.001466
700.8386,0.01387,-0.35644,0.14502,-9.83454,-0.110182,0.003198,0.002132
700.8525,0.01386,-0.31371,0.35058,-9.79437,-0.100989,0.002398,0.002665
700.8664,0.01387,-0.29947,0.12829,-9.83454,-0.107251,0.003864,0.004930
700.9158,0.04948,-0.39679,0.20239,-9.75893,-0.136429,0.002265,0.002665
700.9360,0.02012,-0.27573,0.09483,-9.91961,-0.109516,-0.003997,0.005596
700.9499,0.01398,-0.30184,0.21434,-9.66205,-0.106319,0.004530,0.001599
700.9638,0.01384,-0.29472,0.29561,-9.96450,-0.106851,0.033574,0.002132
700.9776,0.01385,-0.31608,0.33624,-9.69513,-0.107651,-0.001732,0.002132
700.9915,0.01384,-0.38255,0.16654,-9.70694,-0.101655,-0.000266,0.004263
701.0389,0.04744,-0.25674,0.12351,-9.73766,-0.103654,-0.001066,0.002398
701.0568,0.01786,-0.35169,0.17610,-9.75656,-0.106585,-0.000133,0.004796
701.0706,0.01384,-0.28285,0.11634,-9.81091,-0.106585,0.001332,0.005196
701.0842,0.01358,-0.31371,0.15219,-9.82745,-0.110848,-0.004397,0.003864
701.0977,0.01352,-0.34457,0.05420,-9.76838,-0.106585,0.001066,0.000933
701.1136,0.01588,-0.33270,0.14263,-9.86053,-0.107118,0.000133,0.003730
701.1275,0.01395,-0.38967,0.16893,-9.68095,-0.106851,0.004663,0.002798
701.1750,0.04744,-0.35644,0.17849,-9.69040,-0.103654,-0.001332,0.002798
701.1926,0.01759,-0.28997,0.20239,-9.87944,-0.104187,-0.033574,0.004796
701.2065,0.01396,-0.34932,0.16176,-9.90307,-0.107917,0.000666,0.002531
701.2203,0.01381,-0.32795,0.18088,-9.80619,-0.105119,0.000799,0.001865
701.2341,0.01380,-0.29472,0.08527,-9.80382,-0.106718,0.000666,0.008127
